subNum,blockNo,trialNo,frequency,totalDur,durStatOnset,onsetDistance,offsetDistance,direction,trajectory,offsetAzimuth,targetTrial,congruence,targetAzimuth,sourceInt,fs,accuracy,respTime,promptness,trigger,dbFS,urevent,meanERP
3,1,1,520,2.79735416666667,0.8,2,0.2,1,1,-90,1,1,-90,0,48000,1,335.384533332217,0.00298165210561289,153,-27.8201028497976,2,0.287448585033417
3,1,2,620,2.73602083333333,0.7,2,2,2,4,-90,1,0,90,0,48000,1,369.89686666675,0.00270345626069044,165,-51.5725657918571,6,7.62117624282837
3,1,3,550,2.69335416666667,0.7,2,0.2,1,1,-90,1,1,-90,0,48000,1,258.766633332925,0.00386448587717805,153,-28.1944023730337,9,-6.61040449142456
3,1,4,340,2.67202083333333,0.7,0.2,2,1,2,-90,0,0,NaN,0,48000,1,NaN,NaN,155,-31.0071832177257,0,NaN
3,1,5,480,2.60002083333333,0.6,2,0.2,1,1,90,1,1,90,0,48000,1,197.647366667297,0.00505951592911083,154,-27.2335947598748,17,-1.94051253795624
3,1,6,410,2.70402083333333,0.7,2,0.2,1,1,90,0,0,NaN,0,48000,1,NaN,NaN,152,-27.3650748154132,0,NaN
3,1,7,520,2.58935416666667,0.6,2,0.2,1,1,-90,1,0,90,0,48000,1,221.37823333378,0.00451715593236424,153,-27.4840339647344,26,1.89096915721893
3,1,8,520,2.8506875,0.8,0.2,0.2,2,3,-90,1,0,90,0,48000,1,272.002900000189,0.0036764313909863,161,-26.0425008454922,29,-10.7452707290649
3,1,9,310,2.66402083333333,0.6,0.2,0.2,2,3,90,0,0,NaN,0,48000,1,NaN,NaN,160,-25.4433411120907,0,NaN
3,1,10,310,2.58935416666667,0.6,0.2,2,1,2,-90,0,0,NaN,0,48000,1,NaN,NaN,155,-30.250558742699,0,NaN
3,1,11,480,2.79735416666667,0.8,2,0.2,1,1,90,1,1,90,0,48000,1,239.414633333581,0.00417685412990893,154,-27.3376354801822,41,0.972541511058807
3,1,12,340,2.58935416666667,0.6,2,0.2,1,1,90,0,0,NaN,0,48000,1,NaN,NaN,152,-26.8941483452588,0,NaN
3,1,13,450,2.8506875,0.8,2,2,2,4,90,0,0,NaN,0,48000,1,NaN,NaN,164,-45.7937872555901,0,NaN
3,1,14,480,2.8506875,0.8,0.2,0.2,2,3,-90,0,0,NaN,0,48000,1,NaN,NaN,159,-25.6907916074549,0,NaN
3,1,15,520,2.69335416666667,0.7,0.2,2,1,2,90,0,0,NaN,0,48000,1,NaN,NaN,156,-31.4829288227894,0,NaN
3,1,16,450,2.65335416666667,0.6,2,2,2,4,-90,0,0,NaN,0,48000,1,NaN,NaN,163,-45.7132824814952,0,NaN
3,1,17,550,2.84002083333333,0.8,2,2,2,4,-90,0,0,NaN,0,48000,1,NaN,NaN,163,-45.164271851012,0,NaN
3,1,18,520,2.75735416666667,0.7,0.2,0.2,2,3,-90,0,0,NaN,0,48000,1,NaN,NaN,159,-26.1006287731213,0,NaN
3,1,19,550,2.58935416666667,0.6,0.2,2,1,2,-90,1,1,-90,0,48000,1,235.170133334577,0.00425224064731595,157,-31.5120500470833,73,5.47393465042114
3,1,20,520,2.75735416666667,0.7,0.2,0.2,2,3,90,0,0,NaN,0,48000,1,NaN,NaN,160,-26.1006287731213,0,NaN
3,1,21,340,2.65335416666667,0.6,0.2,0.2,2,3,-90,0,0,NaN,0,48000,1,NaN,NaN,159,-25.3519444016392,0,NaN
3,1,22,410,2.73602083333333,0.7,2,2,2,4,-90,0,0,NaN,0,48000,1,NaN,NaN,163,-45.8850491594035,0,NaN
3,1,23,380,2.6826875,0.7,2,0.2,1,1,90,0,0,NaN,0,48000,1,NaN,NaN,152,-26.8237851540293,0,NaN
3,1,24,550,2.69335416666667,0.7,2,0.2,1,1,-90,1,1,-90,0,48000,1,345.688333332873,0.00289277914113772,153,-28.1944023730337,93,-7.44102954864502
3,1,25,410,2.60002083333333,0.6,2,0.2,1,1,-90,0,0,NaN,0,48000,1,NaN,NaN,151,-26.8001063056235,0,NaN
3,1,26,590,2.84002083333333,0.8,0.2,0.2,2,3,90,1,0,-90,0,48000,1,215.131766666673,0.00464831398679215,162,-26.991896449267,102,-5.15390110015869
3,1,27,480,2.84002083333333,0.8,2,2,2,4,-90,1,1,-90,0,48000,1,247.90966666751,0.00403372733884223,165,-45.7423636170512,105,-3.41407585144043
3,1,28,590,2.6426875,0.6,2,2,2,4,-90,0,0,NaN,0,48000,1,NaN,NaN,163,-47.152729889136,0,NaN
3,1,29,620,2.69335416666667,0.7,2,0.2,1,1,-90,1,0,90,0,48000,1,176.203933333454,0.00567524220987489,153,-29.425792190953,113,0.0807402282953262
3,1,30,310,2.84002083333333,0.8,2,2,2,4,90,0,0,NaN,0,48000,1,NaN,NaN,164,-44.5309137834883,0,NaN
3,1,31,520,2.69335416666667,0.7,0.2,2,1,2,-90,0,0,NaN,0,48000,1,NaN,NaN,155,-31.4829288227894,0,NaN
3,1,32,620,2.75735416666667,0.7,0.2,0.2,2,3,-90,1,1,-90,0,48000,1,277.524633333087,0.00360328374454527,161,-29.5832157873334,125,-6.96461200714111
3,1,33,380,2.6826875,0.7,2,0.2,1,1,-90,0,0,NaN,0,48000,1,NaN,NaN,151,-26.8237851540293,0,NaN
3,1,34,450,2.75735416666667,0.7,2,2,2,4,90,1,0,-90,0,48000,1,228.098233332275,0.00438407604211156,166,-45.6314097253419,133,-14.1987352371216
3,1,35,620,2.80802083333333,0.8,0.2,2,1,2,90,0,0,NaN,0,48000,1,NaN,NaN,156,-33.6944493472279,0,NaN
3,1,36,550,2.7466875,0.7,0.2,0.2,2,3,90,1,1,90,0,48000,1,246.120700000574,0.00406304711467856,162,-25.9398573992865,141,-4.66340684890747
3,1,37,340,2.7866875,0.8,0.2,2,1,2,-90,0,0,NaN,0,48000,1,NaN,NaN,155,-31.0076522909639,0,NaN
3,1,38,410,2.6426875,0.6,2,2,2,4,90,1,1,90,0,48000,1,284.169999999904,0.00351902030474835,166,-45.8589666178859,149,-11.2897472381592
3,1,39,550,2.7466875,0.7,2,2,2,4,90,0,0,NaN,0,48000,1,NaN,NaN,164,-45.2055695332962,0,NaN
3,1,40,410,2.75735416666667,0.7,0.2,0.2,2,3,90,0,0,NaN,0,48000,1,NaN,NaN,160,-25.5050297256631,0,NaN
3,1,41,620,2.67202083333333,0.7,0.2,2,1,2,90,1,0,-90,0,48000,1,244.827266666107,0.00408451237322267,158,-33.7033735868739,161,-0.620367765426636
3,1,42,310,2.73602083333333,0.7,0.2,0.2,2,3,90,0,0,NaN,0,48000,1,NaN,NaN,160,-25.5374644289149,0,NaN
3,1,43,380,2.69335416666667,0.7,0.2,2,1,2,-90,1,0,90,0,48000,1,280.576633333112,0.00356408867025202,157,-30.4955196197628,170,-2.05776953697205
3,1,44,310,2.7706875,0.6,2,0.2,1,1,90,1,1,90,0,48000,1,316.378900000018,0.00316076704230258,154,-24.9294648125124,174,-0.903644561767578
3,1,45,380,2.8506875,0.8,2,2,2,4,90,1,1,90,0,48000,1,248.512200000732,0.00402394731525073,166,-45.3457076604347,178,-0.331334918737411
3,1,46,480,2.79735416666667,0.8,0.2,2,1,2,-90,1,0,90,0,48000,1,249.201133333372,0.00401282284162904,157,-30.3356673615812,182,2.86174607276917
3,1,47,310,2.69335416666667,0.7,0.2,2,1,2,-90,1,0,90,0,48000,1,234.553049999704,0.00426342782582133,157,-30.2556668274754,185,-1.02044796943665
3,1,48,450,2.80802083333333,0.8,0.2,2,1,2,-90,0,0,NaN,0,48000,1,NaN,NaN,155,-29.6659107293185,0,NaN
3,1,49,590,2.75735416666667,0.7,0.2,0.2,2,3,-90,0,0,NaN,0,48000,1,NaN,NaN,159,-27.0267337637373,0,NaN
3,1,50,450,2.69335416666667,0.7,2,0.2,1,1,-90,0,0,NaN,0,48000,1,NaN,NaN,151,-26.5193806994949,0,NaN
3,1,51,310,2.84002083333333,0.8,2,2,2,4,90,0,0,NaN,0,48000,1,NaN,NaN,164,-44.5309137834883,0,NaN
3,1,52,590,2.77602083333333,0.8,2,0.2,1,1,90,1,0,-90,0,48000,1,236.228466666034,0.00423319007278551,154,-28.743945045706,206,2.45488095283508
3,1,53,450,2.8506875,0.8,0.2,0.2,2,3,-90,1,1,-90,0,48000,1,288.65869999936,0.00346429884151151,161,-25.7624933186143,210,-4.16483116149902
3,1,54,620,2.58935416666667,0.6,0.2,2,1,2,90,1,1,90,0,48000,1,226.589933334253,0.00441325872374416,158,-33.712054987057,214,-4.58096361160278
3,1,55,590,2.56802083333333,0.6,0.2,2,1,2,90,1,0,-90,0,48000,1,252.826666665896,0.0039552789790227,158,-32.3905686107578,217,NaN
3,1,56,520,2.69335416666667,0.7,0.2,2,1,2,90,0,0,NaN,0,48000,1,NaN,NaN,156,-31.4829288227894,0,NaN
3,1,57,410,2.84002083333333,0.8,0.2,0.2,2,3,-90,0,0,NaN,0,48000,1,NaN,NaN,159,-25.5054965372243,0,NaN
3,1,58,410,2.65335416666667,0.6,0.2,0.2,2,3,90,1,1,90,0,48000,1,354.488700000729,0.00282096439180697,162,-25.4429551504722,230,2.04359245300293
3,1,59,480,2.65335416666667,0.6,2,2,2,4,-90,1,0,90,0,48000,1,380.972533333079,0.00262486114484719,165,-45.7280572642869,234,-6.83412408828735
3,1,60,550,2.69335416666667,0.7,0.2,2,1,2,-90,1,0,90,0,48000,1,325.168733333157,0.00307532643052563,157,-31.5132866644924,237,2.12051725387573
3,1,61,380,2.7866875,0.8,2,0.2,1,1,90,0,0,NaN,0,48000,1,NaN,NaN,152,-26.6854988546954,0,NaN
3,1,62,410,2.70402083333333,0.7,2,0.2,1,1,-90,0,0,NaN,0,48000,1,NaN,NaN,151,-27.3650748154132,0,NaN
3,1,63,550,2.7466875,0.7,0.2,0.2,2,3,-90,1,1,-90,0,48000,1,379.705300000751,0.00263362139005703,161,-25.9398573992865,250,1.70907866954803
3,1,64,450,2.7466875,0.7,0.2,0.2,2,3,-90,1,1,-90,0,48000,1,309.762500000033,0.00322827973043829,161,-25.8133553038873,254,-8.67904758453369
3,1,65,410,2.6426875,0.6,2,2,2,4,90,1,1,90,0,48000,1,283.511600000566,0.00352719253814661,166,-45.884107471431,257,-2.64939141273499
3,1,66,450,2.79735416666667,0.8,2,0.2,1,1,-90,0,0,NaN,0,48000,1,NaN,NaN,151,-26.8655015588954,0,NaN
3,1,67,340,2.6426875,0.6,2,2,2,4,90,1,0,-90,0,48000,1,321.80150000022,0.00310750571392401,166,-44.776433421734,266,4.00630903244019
3,1,68,620,2.69335416666667,0.7,0.2,2,1,2,90,1,0,-90,0,48000,1,340.067133333832,0.00294059584705098,158,-33.7059704669344,269,-5.7712574005127
3,1,69,450,2.70402083333333,0.7,0.2,2,1,2,90,0,0,NaN,0,48000,1,NaN,NaN,156,-29.6652181104156,0,NaN
3,1,70,590,2.65335416666667,0.6,2,2,2,4,-90,1,0,90,0,48000,1,319.025633332785,0.00313454436106979,165,-47.1992881788064,277,9.20849800109863
3,1,71,480,2.65335416666667,0.6,0.2,0.2,2,3,90,0,0,NaN,0,48000,1,NaN,NaN,160,-25.6873942649887,0,NaN
3,1,72,520,2.8506875,0.8,2,2,2,4,-90,0,0,NaN,0,48000,1,NaN,NaN,163,-46.1466483646551,0,NaN
3,1,73,410,2.6106875,0.6,2,0.2,1,1,90,1,1,90,0,48000,1,301.147899999705,0.00332062750562424,154,-26.9497594209866,289,NaN
3,1,74,380,2.79735416666667,0.8,2,0.2,1,1,90,0,0,NaN,0,48000,1,NaN,NaN,152,-26.9161521411356,0,NaN
3,1,75,620,2.75735416666667,0.7,0.2,0.2,2,3,90,1,1,90,0,48000,1,254.891933333056,0.0039232312569631,162,-29.5832157873334,298,-2.23780918121338
3,1,76,480,2.84002083333333,0.8,2,2,2,4,-90,1,1,-90,0,48000,1,278.975966666621,0.00358453816631097,165,-45.7423636170512,301,-1.22600305080414
3,1,77,310,2.76002083333333,0.6,0.2,2,1,2,90,0,0,NaN,0,48000,1,NaN,NaN,156,-30.2725693694007,0,NaN
3,1,78,310,3.04802083333333,0.6,0.2,0.2,2,3,90,1,1,90,0,48000,1,347.718966665525,0.00287588568892163,162,-24.9856080002876,309,-3.82833528518677
3,1,79,410,2.73602083333333,0.7,2,2,2,4,90,0,0,NaN,0,48000,1,NaN,NaN,164,-45.8672355155751,0,NaN
3,1,80,410,2.6826875,0.7,0.2,2,1,2,90,1,0,-90,0,48000,1,298.817299999428,0.00334652645613864,158,-30.6119666240238,319,-3.64963150024414
3,2,81,450,2.69335416666667,0.7,2,0.2,1,1,90,0,0,NaN,0,48000,1,NaN,NaN,152,-26.5193806994949,0,NaN
3,2,82,620,2.7466875,0.7,0.2,0.2,2,3,90,1,0,-90,0,48000,1,266.966099999991,0.00374579394162793,162,-29.6063746144986,328,-6.51833963394165
3,2,83,410,2.6426875,0.6,2,2,2,4,-90,1,1,-90,0,48000,1,266.713050001272,0.00374934784779084,165,-45.884107471431,331,-4.31201791763306
3,2,84,380,2.6426875,0.6,2,2,2,4,90,0,0,NaN,0,48000,1,NaN,NaN,164,-45.3286182757882,0,NaN
3,2,85,450,2.79735416666667,0.8,2,0.2,1,1,-90,1,0,90,0,48000,1,274.765933332674,0.00363946136943129,153,-26.6712233821751,339,NaN
3,2,86,590,2.67202083333333,0.7,0.2,2,1,2,-90,0,0,NaN,0,48000,1,NaN,NaN,155,-32.3847766733572,0,NaN
3,2,87,480,2.65335416666667,0.6,2,2,2,4,-90,0,0,NaN,0,48000,1,NaN,NaN,163,-45.7957641066375,0,NaN
3,2,88,340,2.86135416666667,0.8,2,2,2,4,90,1,0,-90,0,48000,1,330.728533333058,0.00302362783737488,166,-44.7820324120601,352,-7.89720630645752
3,2,89,310,2.70402083333333,0.7,2,0.2,1,1,90,1,0,-90,0,48000,1,308.652166666434,0.00323989301873496,154,-26.6803962545457,355,3.36950087547302
3,2,90,520,2.67202083333333,0.7,2,0.2,1,1,-90,0,0,NaN,0,48000,1,NaN,NaN,151,-27.9478838335769,0,NaN
3,2,91,520,2.7866875,0.8,0.2,2,1,2,-90,0,0,NaN,0,48000,1,NaN,NaN,155,-31.4839289475066,0,NaN
3,2,92,410,2.79735416666667,0.8,2,0.2,1,1,-90,0,0,NaN,0,48000,1,NaN,NaN,151,-27.3487537362982,0,NaN
3,2,93,590,2.67202083333333,0.7,0.2,2,1,2,90,0,0,NaN,0,48000,1,NaN,NaN,156,-32.3847766733572,0,NaN
3,2,94,620,2.58935416666667,0.6,0.2,2,1,2,90,1,1,90,0,48000,1,246.972483334503,0.00404903407253507,158,-33.712054987057,375,0.772045195102692
3,2,95,410,2.73602083333333,0.7,2,2,2,4,-90,0,0,NaN,0,48000,1,NaN,NaN,163,-45.8672355155751,0,NaN
3,2,96,520,2.70402083333333,0.7,2,0.2,1,1,90,1,0,-90,0,48000,1,229.450666665798,0.00435823532147994,154,-27.9331713146641,384,-7.42149877548218
3,2,97,310,2.6426875,0.6,2,2,2,4,-90,1,1,-90,0,48000,1,352.342700000008,0.00283814593008448,165,-44.4980094463332,388,-4.32061910629272
3,2,98,520,2.66402083333333,0.6,0.2,0.2,2,3,-90,1,0,90,0,48000,1,258.391066667173,0.00387010283636499,161,-26.0654866259736,392,5.77121734619141
3,2,99,450,2.75735416666667,0.7,2,2,2,4,-90,1,0,90,0,48000,1,280.16903333355,0.00356927383480482,165,-45.6314097253419,396,-3.51550030708313
3,2,100,410,2.6426875,0.6,2,2,2,4,90,1,1,90,0,48000,1,216.159300000072,0.00462621779400501,166,-45.884107471431,399,-5.00123023986816
3,2,101,450,2.70402083333333,0.7,2,0.2,1,1,-90,0,0,NaN,0,48000,1,NaN,NaN,151,-26.824131749048,0,NaN
3,2,102,550,2.70402083333333,0.7,0.2,2,1,2,-90,1,1,-90,0,48000,1,223.694666666233,0.00447037926698567,157,-31.5147962714923,408,-0.177695512771606
3,2,103,380,2.75735416666667,0.7,0.2,0.2,2,3,-90,1,1,-90,0,48000,1,313.372633333529,0.00319108911765017,161,-25.547059873967,411,-1.21413314342499
3,2,104,340,2.7466875,0.7,2,2,2,4,-90,0,0,NaN,0,48000,1,NaN,NaN,163,-44.7739332459954,0,NaN
3,2,105,450,2.77602083333333,0.8,0.2,2,1,2,-90,1,0,90,0,48000,1,275.397766667083,0.00363111150864508,157,-29.665336697497,420,-1.16756391525269
3,2,106,590,2.6826875,0.7,2,0.2,1,1,90,1,0,-90,0,48000,1,232.226299999638,0.00430614448062755,154,-28.5302501737356,424,-3.17199802398682
3,2,107,480,2.79735416666667,0.8,0.2,2,1,2,90,1,0,-90,0,48000,1,200.546433333329,0.00498637638864359,158,-30.3356673615812,428,-7.61448001861572
3,2,108,340,2.7466875,0.7,2,2,2,4,-90,1,1,-90,0,48000,1,241.269099999954,0.00414474957630376,165,-44.7752655522814,432,-1.0836820602417
3,2,109,450,2.79735416666667,0.8,2,0.2,1,1,-90,1,0,90,0,48000,1,241.384433333224,0.00414276921751425,153,-26.6712233821751,435,-0.0964288711547852
3,2,110,550,2.60002083333333,0.6,2,0.2,1,1,90,0,0,NaN,0,48000,1,NaN,NaN,152,-28.3011137125849,0,NaN
3,2,111,520,2.58935416666667,0.6,0.2,2,1,2,-90,0,0,NaN,0,48000,1,NaN,NaN,155,-31.479125381462,0,NaN
3,2,112,550,2.79735416666667,0.8,2,0.2,1,1,90,0,0,NaN,0,48000,1,NaN,NaN,152,-28.254673205113,0,NaN
3,2,113,380,2.75735416666667,0.7,0.2,0.2,2,3,90,1,1,90,0,48000,1,217.872233332855,0.00458984600608672,162,-25.547059873967,452,-2.91478562355042
3,2,114,620,2.7466875,0.7,0.2,0.2,2,3,-90,1,0,90,0,48000,1,232.241199999407,0.00430586820944153,161,-29.6063746144986,456,-9.00311756134033
3,2,115,520,2.66402083333333,0.6,0.2,0.2,2,3,90,1,0,-90,0,48000,1,266.929166667069,0.00374631222389895,162,-26.0654866259736,459,-0.672841012477875
3,2,116,550,2.8506875,0.8,0.2,0.2,2,3,90,0,0,NaN,0,48000,1,NaN,NaN,160,-25.9772364000523,0,NaN
3,2,117,590,2.6426875,0.6,2,2,2,4,90,0,0,NaN,0,48000,1,NaN,NaN,164,-47.152729889136,0,NaN
3,2,118,550,2.7466875,0.7,0.2,0.2,2,3,-90,0,0,NaN,0,48000,1,NaN,NaN,159,-25.9712332311492,0,NaN
3,2,119,340,2.65335416666667,0.6,0.2,0.2,2,3,90,0,0,NaN,0,48000,1,NaN,NaN,160,-25.3519444016392,0,NaN
3,2,120,380,2.60002083333333,0.6,0.2,2,1,2,90,0,0,NaN,0,48000,1,NaN,NaN,156,-30.4912613090591,0,NaN
3,2,121,310,2.73602083333333,0.7,2,2,2,4,90,1,0,-90,0,48000,1,225.568766665674,0.00443323787588973,166,-44.4628930946721,484,0.119487203657627
3,2,122,550,2.70402083333333,0.7,0.2,2,1,2,90,1,1,90,0,48000,1,410.076066666988,0.00243857196575208,158,-31.5147962714923,488,1.05675792694092
3,2,123,620,2.7466875,0.7,2,2,2,4,-90,1,0,90,0,48000,1,210.399300000972,0.00475286752377683,165,-51.5610864035812,492,-2.83226633071899
3,2,124,520,2.7466875,0.7,2,2,2,4,90,1,0,-90,0,48000,1,184.944599999653,0.00540702459007657,166,-46.1553511943517,495,-3.35358691215515
3,2,125,620,2.80802083333333,0.8,0.2,2,1,2,90,0,0,NaN,0,48000,1,NaN,NaN,156,-33.6944493472279,0,NaN
3,2,126,620,2.80802083333333,0.8,2,0.2,1,1,-90,1,0,90,0,48000,1,374.240866666696,0.00267207589835616,153,-29.7376542973903,503,-8.41504096984863
3,2,127,520,2.7866875,0.8,0.2,2,1,2,90,0,0,NaN,0,48000,1,NaN,NaN,156,-31.4839289475066,0,NaN
3,2,128,410,2.60002083333333,0.6,0.2,2,1,2,-90,0,0,NaN,0,48000,1,NaN,NaN,155,-30.6086034661557,0,NaN
3,2,129,590,2.8506875,0.8,2,2,2,4,-90,0,0,NaN,0,48000,1,NaN,NaN,163,-47.1676058851589,0,NaN
3,2,130,310,2.84002083333333,0.8,0.2,0.2,2,3,90,1,0,-90,0,48000,1,316.965066666853,0.00315492180420959,162,-25.4233433055064,520,-0.949336409568787
3,2,131,480,2.60002083333333,0.6,0.2,2,1,2,-90,1,1,-90,0,48000,1,246.904166666354,0.00405015441214209,157,-30.3365286112379,524,-2.60212326049805
3,2,132,450,2.65335416666667,0.6,0.2,0.2,2,3,90,1,0,-90,0,48000,1,265.42473333302,0.00376754640550144,162,-25.7815819471722,528,-1.71749722957611
3,2,133,450,2.65335416666667,0.6,0.2,0.2,2,3,-90,1,0,90,0,48000,1,188.842733333331,0.00529541159645722,161,-25.7815819471722,531,-4.34659337997437
3,2,134,550,2.65335416666667,0.6,0.2,0.2,2,3,90,0,0,NaN,0,48000,1,NaN,NaN,160,-25.9803609255197,0,NaN
3,2,135,620,2.69335416666667,0.7,0.2,2,1,2,90,1,0,-90,0,48000,1,246.842333333916,0.00405116896479523,158,-33.7059704669344,540,-11.7012634277344
3,2,136,450,2.86135416666667,0.8,2,2,2,4,90,1,1,90,0,48000,1,223.971333332884,0.0044648571096986,166,-45.6622922054217,543,-3.45674204826355
3,2,137,550,2.7466875,0.7,0.2,0.2,2,3,-90,0,0,NaN,0,48000,1,NaN,NaN,159,-25.9712332311492,0,NaN
3,2,138,590,2.6426875,0.6,0.2,0.2,2,3,90,0,0,NaN,0,48000,1,NaN,NaN,160,-27.0258874732567,0,NaN
3,2,139,450,2.69335416666667,0.7,0.2,2,1,2,90,0,0,NaN,0,48000,1,NaN,NaN,156,-29.6634983540999,0,NaN
3,2,140,340,2.8506875,0.8,0.2,0.2,2,3,-90,0,0,NaN,0,48000,1,NaN,NaN,159,-25.3764499394691,0,NaN
3,2,141,310,2.70402083333333,0.7,2,0.2,1,1,-90,1,0,90,0,48000,1,297.510066666291,0.00336123080205441,153,-26.6803962545457,563,-3.45580744743347
3,2,142,620,2.80802083333333,0.8,0.2,2,1,2,-90,0,0,NaN,0,48000,1,NaN,NaN,155,-33.6944493472279,0,NaN
3,2,143,380,2.6426875,0.6,2,0.2,1,1,-90,0,0,NaN,0,48000,1,NaN,NaN,151,-26.0450215562927,0,NaN
3,2,144,340,2.79735416666667,0.8,2,0.2,1,1,-90,1,1,-90,0,48000,1,172.829433333391,0.00578605148852733,153,-27.1894746095986,575,1.52747178077698
3,2,145,480,2.60002083333333,0.6,2,0.2,1,1,90,0,0,NaN,0,48000,1,NaN,NaN,152,-27.4619728948608,0,NaN
3,2,146,590,2.65335416666667,0.6,0.2,0.2,2,3,-90,1,1,-90,0,48000,1,267.401733332918,0.00373969154027506,161,-26.9416370596826,583,NaN
3,2,147,550,2.65335416666667,0.6,0.2,0.2,2,3,-90,0,0,NaN,0,48000,1,NaN,NaN,159,-25.9803609255197,0,NaN
3,2,148,340,2.75735416666667,0.7,0.2,0.2,2,3,90,0,0,NaN,0,48000,1,NaN,NaN,160,-25.3407444839552,0,NaN
3,2,149,620,2.60002083333333,0.6,2,0.2,1,1,-90,0,0,NaN,0,48000,1,NaN,NaN,151,-29.8352771980998,0,NaN
3,2,150,310,2.69335416666667,0.7,0.2,2,1,2,90,1,0,-90,0,48000,1,233.114233333254,0.00428974235378596,158,-30.2556668274754,600,-4.87770175933838
3,2,151,410,2.80802083333333,0.8,0.2,2,1,2,-90,1,1,-90,0,48000,1,259.057566667252,0.003860145885198,157,-30.6151734169963,603,-0.258877754211426
3,2,152,410,2.75735416666667,0.7,0.2,0.2,2,3,-90,0,0,NaN,0,48000,1,NaN,NaN,159,-25.5050297256631,0,NaN
3,2,153,590,2.60002083333333,0.6,2,0.2,1,1,90,0,0,NaN,0,48000,1,NaN,NaN,152,-29.0274172785956,0,NaN
3,2,154,620,2.67202083333333,0.7,0.2,2,1,2,-90,1,0,90,0,48000,1,214.397966667093,0.00466422333917351,157,-33.7033735868739,615,NaN
3,2,155,550,2.75735416666667,0.7,2,2,2,4,90,0,0,NaN,0,48000,1,NaN,NaN,164,-45.1766916298357,0,NaN
3,2,156,620,2.6426875,0.6,2,2,2,4,-90,0,0,NaN,0,48000,1,NaN,NaN,163,-51.5508377630638,0,NaN
3,2,157,520,2.79735416666667,0.8,2,0.2,1,1,90,1,1,90,0,48000,1,211.004133332608,0.00473924365464296,154,-27.8201028497976,627,-5.34906101226807
3,2,158,410,2.84002083333333,0.8,2,2,2,4,90,0,0,NaN,0,48000,1,NaN,NaN,164,-45.8800026104858,0,NaN
3,2,159,590,2.8506875,0.8,2,2,2,4,90,0,0,NaN,0,48000,1,NaN,NaN,164,-47.1805662280262,0,NaN
3,2,160,310,2.70402083333333,0.7,2,0.2,1,1,90,1,0,-90,0,48000,1,255.09246666843,0.00392014712570797,154,-26.6574337294923,642,1.05196046829224
3,3,161,450,2.77602083333333,0.8,0.2,2,1,2,-90,1,0,90,0,48000,1,211.660966666386,0.00472453667650574,157,-29.665336697497,646,-3.7405469417572
3,3,162,620,2.80802083333333,0.8,2,0.2,1,1,90,1,0,-90,0,48000,1,207.622366668147,0.00481643676472655,154,-29.7376542973903,649,-3.5579080581665
3,3,163,380,2.79735416666667,0.8,2,0.2,1,1,90,0,0,NaN,0,48000,1,NaN,NaN,152,-26.9161521411356,0,NaN
3,3,164,620,2.67202083333333,0.7,0.2,2,1,2,90,1,0,-90,0,48000,1,267.26036666696,0.00374166964025057,158,-33.7033735868739,658,-5.59580278396606
3,3,165,340,2.70402083333333,0.7,2,0.2,1,1,-90,1,0,90,0,48000,1,200.080366665134,0.00499799164039748,153,-27.0145526152145,661,4.09952878952026
3,3,166,550,2.65335416666667,0.6,0.2,0.2,2,3,90,0,0,NaN,0,48000,1,NaN,NaN,160,-25.9803609255197,0,NaN
3,3,167,550,2.6426875,0.6,2,2,2,4,90,1,0,-90,0,48000,1,269.428800000242,0.00371155570599395,166,-45.2155678960655,670,-3.9469165802002
3,3,168,520,2.67202083333333,0.7,0.2,2,1,2,-90,1,1,-90,0,48000,1,453.112266666722,0.00220695856979642,157,-31.483592891631,673,-2.84954333305359
3,3,169,310,2.58935416666667,0.6,0.2,2,1,2,90,0,0,NaN,0,48000,1,NaN,NaN,156,-30.250558742699,0,NaN
3,3,170,620,2.84002083333333,0.8,2,2,2,4,90,0,0,NaN,0,48000,1,NaN,NaN,164,-51.5860672892659,0,NaN
3,3,171,590,2.60002083333333,0.6,0.2,2,1,2,-90,1,0,90,0,48000,1,216.034366665554,0.0046288931498946,157,-32.3925720486227,686,NaN
3,3,172,550,2.7866875,0.8,2,0.2,1,1,-90,1,0,90,0,48000,1,194.114500000069,0.0051515986698554,153,-27.7567255177675,690,-2.58925294876099
3,3,173,590,2.60002083333333,0.6,0.2,2,1,2,90,1,0,-90,0,48000,1,216.191466666714,0.00462552946893886,158,-32.3925720486227,694,-7.81356763839722
3,3,174,520,2.6426875,0.6,2,2,2,4,90,1,1,90,0,48000,1,216.591699998389,0.0046169820912225,166,-46.1598362808609,698,0.0606810711324215
3,3,175,590,2.87202083333333,0.8,0.2,0.2,2,3,90,1,0,-90,0,48000,1,183.903466666379,0.00543763539712989,162,-26.9583842904131,701,-4.36382913589478
3,3,176,520,2.7866875,0.8,0.2,2,1,2,-90,0,0,NaN,0,48000,1,NaN,NaN,155,-31.4839289475066,0,NaN
3,3,177,340,2.7466875,0.7,2,2,2,4,-90,0,0,NaN,0,48000,1,NaN,NaN,163,-44.7739332459954,0,NaN
3,3,178,550,2.8506875,0.8,0.2,0.2,2,3,90,0,0,NaN,0,48000,1,NaN,NaN,160,-25.9726698399401,0,NaN
3,3,179,340,2.70402083333333,0.7,2,0.2,1,1,90,1,0,-90,0,48000,1,236.211866666054,0.00423348756400015,154,-27.0145526152145,718,-3.29838490486145
3,3,180,520,2.5786875,0.6,2,0.2,1,1,-90,1,1,-90,0,48000,1,184.457899998961,0.005421291254024,153,-27.4071401206593,721,NaN
3,3,181,590,2.8506875,0.8,2,2,2,4,90,0,0,NaN,0,48000,1,NaN,NaN,164,-47.1676058851589,0,NaN
3,3,182,340,2.8506875,0.8,0.2,0.2,2,3,-90,1,0,90,0,48000,1,181.230299998788,0.00551784111159496,161,-25.2996497630897,729,-8.86715602874756
3,3,183,550,2.60002083333333,0.6,2,0.2,1,1,90,0,0,NaN,0,48000,1,NaN,NaN,152,-28.3011137125849,0,NaN
3,3,184,340,2.67202083333333,0.7,0.2,2,1,2,90,0,0,NaN,0,48000,1,NaN,NaN,156,-31.0071832177257,0,NaN
3,3,185,590,2.79735416666667,0.8,0.2,2,1,2,90,1,1,90,0,48000,1,242.379133333088,0.00412576770222936,158,-32.3931640748448,742,-6.51803684234619
3,3,186,310,2.82402083333333,0.6,2,2,2,4,-90,1,1,-90,0,48000,1,222.353266666687,0.00449734791393474,165,-44.237299476544,745,-3.86403059959412
3,3,187,410,2.65335416666667,0.6,0.2,0.2,2,3,-90,0,0,NaN,0,48000,1,NaN,NaN,159,-25.5116573614955,0,NaN
3,3,188,380,2.75735416666667,0.7,2,2,2,4,-90,1,0,90,0,48000,1,210.777433334442,0.00474434091060067,165,-45.3488581986925,753,-5.29158401489258
3,3,189,310,2.58935416666667,0.6,0.2,2,1,2,-90,0,0,NaN,0,48000,1,NaN,NaN,155,-30.250558742699,0,NaN
3,3,190,590,2.8506875,0.8,2,2,2,4,-90,0,0,NaN,0,48000,1,NaN,NaN,163,-47.1805662280262,0,NaN
3,3,191,450,2.65335416666667,0.6,0.2,0.2,2,3,-90,1,0,90,0,48000,1,194.387633331644,0.00514436017796412,161,-25.7815819471722,765,1.10329413414001
3,3,192,410,2.79735416666667,0.8,2,0.2,1,1,-90,0,0,NaN,0,48000,1,NaN,NaN,151,-27.3487537362982,0,NaN
3,3,193,380,2.8506875,0.8,2,2,2,4,-90,1,1,-90,0,48000,1,170.785199999955,0.00585530830540506,165,-45.3457076604347,773,NaN
3,3,194,450,2.80802083333333,0.8,0.2,2,1,2,90,0,0,NaN,0,48000,1,NaN,NaN,156,-29.6659107293185,0,NaN
3,3,195,310,2.73602083333333,0.7,0.2,0.2,2,3,90,1,0,-90,0,48000,1,184.758666668131,0.00541246599162912,162,-25.458008290575,781,-1.22475636005402
3,3,196,520,2.7866875,0.8,0.2,2,1,2,90,0,0,NaN,0,48000,1,NaN,NaN,156,-31.4839289475066,0,NaN
3,3,197,310,2.70402083333333,0.7,2,0.2,1,1,-90,1,0,90,0,48000,1,194.723266666188,0.00513549313916498,153,-26.6803962545457,789,-0.0029422661755234
3,3,198,550,2.60002083333333,0.6,2,0.2,1,1,-90,0,0,NaN,0,48000,1,NaN,NaN,151,-28.3011137125849,0,NaN
3,3,199,480,2.79735416666667,0.8,0.2,2,1,2,-90,1,1,-90,0,48000,1,191.106833335652,0.00523267526621426,157,-30.335784807453,797,-2.02366304397583
3,3,200,520,2.67202083333333,0.7,2,0.2,1,1,-90,0,0,NaN,0,48000,1,NaN,NaN,151,-27.9478838335769,0,NaN
3,3,201,380,2.75735416666667,0.7,0.2,0.2,2,3,90,1,1,90,0,48000,1,217.134733333296,0.00460543545773963,162,-25.547059873967,805,-3.00869083404541
3,3,202,340,2.65335416666667,0.6,0.2,0.2,2,3,90,0,0,NaN,0,48000,1,NaN,NaN,160,-25.3519444016392,0,NaN
3,3,203,450,2.7466875,0.7,0.2,0.2,2,3,-90,0,0,NaN,0,48000,1,NaN,NaN,159,-25.8422296039099,0,NaN
3,3,204,340,2.67202083333333,0.7,2,0.2,1,1,90,0,0,NaN,0,48000,1,NaN,NaN,152,-27.0639283457746,0,NaN
3,3,205,340,2.70402083333333,0.7,0.2,2,1,2,90,1,0,-90,0,48000,1,478.115366666316,0.00209154540874214,158,-31.0108631587499,822,-1.02213478088379
3,3,206,310,2.73602083333333,0.7,0.2,0.2,2,3,-90,1,0,90,0,48000,1,269.037866666622,0.00371694889046659,161,-25.458008290575,825,-3.55072116851807
3,3,207,410,2.73602083333333,0.7,2,2,2,4,90,0,0,NaN,0,48000,1,NaN,NaN,164,-45.8850491594035,0,NaN
3,3,208,520,2.8506875,0.8,2,2,2,4,-90,0,0,NaN,0,48000,1,NaN,NaN,163,-46.1466483646551,0,NaN
3,3,209,550,2.8506875,0.8,2,2,2,4,90,1,1,90,0,48000,1,354.352200001813,0.00282205105540444,166,-45.2711276773581,837,0.837856233119965
3,3,210,480,2.84002083333333,0.8,0.2,0.2,2,3,90,0,0,NaN,0,48000,1,NaN,NaN,160,-25.7165306137454,0,NaN
3,3,211,590,2.80802083333333,0.8,2,0.2,1,1,-90,1,0,90,0,48000,1,168.765866666945,0.00592536879494403,153,-28.9600281346329,845,0.598304927349091
3,3,212,620,2.60002083333333,0.6,2,0.2,1,1,90,0,0,NaN,0,48000,1,NaN,NaN,152,-29.8352771980998,0,NaN
3,3,213,620,2.65335416666667,0.6,0.2,0.2,2,3,90,1,1,90,0,48000,1,175.516133333076,0.00569748194088976,162,-29.5541055915629,854,-13.5064191818237
3,3,214,520,2.65335416666667,0.6,0.2,0.2,2,3,-90,1,1,-90,0,48000,1,183.292233332395,0.00545576853868396,161,-26.0666157585722,857,NaN
3,3,215,550,2.79735416666667,0.8,0.2,2,1,2,-90,0,0,NaN,0,48000,1,NaN,NaN,155,-31.5178537235696,0,NaN
3,3,216,450,2.60002083333333,0.6,2,0.2,1,1,90,1,0,-90,0,48000,1,334.416366666119,0.00299028426739173,154,-26.2330242854017,865,-0.499881684780121
3,3,217,480,2.66402083333333,0.6,0.2,0.2,2,3,-90,0,0,NaN,0,48000,1,NaN,NaN,159,-25.6858090325661,0,NaN
3,3,218,590,2.60002083333333,0.6,2,0.2,1,1,-90,0,0,NaN,0,48000,1,NaN,NaN,151,-29.0512399463374,0,NaN
3,3,219,380,2.8506875,0.8,2,2,2,4,-90,1,1,-90,0,48000,1,225.308600000062,0.00443835699125433,165,-45.3457076604347,877,-1.35131084918976
3,3,220,590,2.6426875,0.6,2,2,2,4,90,0,0,NaN,0,48000,1,NaN,NaN,164,-47.152729889136,0,NaN
3,3,221,450,2.70402083333333,0.7,0.2,2,1,2,-90,0,0,NaN,0,48000,1,NaN,NaN,155,-29.6652181104156,0,NaN
3,3,222,310,2.69335416666667,0.7,0.2,2,1,2,-90,1,0,90,0,48000,1,209.313833334818,0.00477751510288573,157,-30.2556668274754,889,6.13520574569702
3,3,223,480,2.60002083333333,0.6,0.2,2,1,2,90,0,0,NaN,0,48000,1,NaN,NaN,156,-30.3366723770713,0,NaN
3,3,224,520,2.73602083333333,0.7,2,2,2,4,-90,0,0,NaN,0,48000,1,NaN,NaN,163,-46.1596382760859,0,NaN
3,3,225,480,2.79735416666667,0.8,0.2,2,1,2,90,1,1,90,0,48000,1,209.731733335502,0.00476799568713966,158,-30.335784807453,901,-6.49289083480835
3,3,226,340,2.60002083333333,0.6,0.2,2,1,2,-90,0,0,NaN,0,48000,1,NaN,NaN,155,-31.0168787576282,0,NaN
3,3,227,410,2.84002083333333,0.8,2,2,2,4,-90,0,0,NaN,0,48000,1,NaN,NaN,163,-45.8800026104858,0,NaN
3,3,228,620,2.6106875,0.6,2,0.2,1,1,90,1,1,90,0,48000,1,315.512400000443,0.00316944753993375,154,-29.7320882737633,914,-4.13236999511719
3,3,229,480,2.7466875,0.7,2,2,2,4,-90,1,1,-90,0,48000,1,367.406733334064,0.00272177918712979,165,-45.7220127109915,918,1.72642064094543
3,3,230,380,2.75735416666667,0.7,2,2,2,4,90,1,0,-90,0,48000,1,222.808433334649,0.00448816045709564,166,-45.3488581986925,921,-1.28099393844604
3,3,231,520,2.67202083333333,0.7,2,0.2,1,1,90,0,0,NaN,0,48000,1,NaN,NaN,152,-27.9478838335769,0,NaN
3,3,232,590,2.84002083333333,0.8,0.2,0.2,2,3,90,1,0,-90,0,48000,1,175.156966664872,0.00570916486532506,162,-26.991896449267,929,-4.3431282043457
3,3,233,340,2.75735416666667,0.7,0.2,0.2,2,3,-90,0,0,NaN,0,48000,1,NaN,NaN,159,-25.3407444839552,0,NaN
3,3,234,520,2.8506875,0.8,2,2,2,4,90,0,0,NaN,0,48000,1,NaN,NaN,164,-46.1466483646551,0,NaN
3,3,235,310,2.7706875,0.6,2,0.2,1,1,90,1,1,90,0,48000,1,219.341399999394,0.00455910284151904,154,-24.9294648125124,942,NaN
3,3,236,380,2.8506875,0.8,2,2,2,4,90,1,1,90,0,48000,1,316.45589999971,0.00315999796496421,166,-45.3457076604347,945,3.43205738067627
3,3,237,480,2.7466875,0.7,0.2,0.2,2,3,-90,0,0,NaN,0,48000,1,NaN,NaN,159,-25.737289599966,0,NaN
3,3,238,410,2.60002083333333,0.6,2,0.2,1,1,-90,0,0,NaN,0,48000,1,NaN,NaN,151,-26.8001063056235,0,NaN
3,3,239,590,2.75735416666667,0.7,0.2,0.2,2,3,90,0,0,NaN,0,48000,1,NaN,NaN,160,-27.0267337637373,0,NaN
3,3,240,410,2.75735416666667,0.7,0.2,0.2,2,3,-90,1,1,-90,0,48000,1,297.632233332479,0.00335985114516451,161,-25.4837939909084,964,4.27988147735596
3,4,241,550,2.8506875,0.8,2,2,2,4,-90,1,1,-90,0,48000,1,207.418300000427,0.00482117537361912,165,-45.2711276773581,968,NaN
3,4,242,620,2.7466875,0.7,2,2,2,4,90,1,0,-90,0,48000,1,173.666099999537,0.00575817617832535,166,-51.5610864035812,971,NaN
3,4,243,310,2.76002083333333,0.6,0.2,2,1,2,90,0,0,NaN,0,48000,1,NaN,NaN,156,-30.2725693694007,0,NaN
3,4,244,380,2.84002083333333,0.8,0.2,0.2,2,3,-90,1,0,90,0,48000,1,176.471566666805,0.00566663524831789,161,-25.5496060278398,979,-7.38666200637817
3,4,245,380,2.6426875,0.6,2,2,2,4,-90,0,0,NaN,0,48000,1,NaN,NaN,163,-45.3236453849584,0,NaN
3,4,246,410,2.76802083333333,0.7,2,0.2,1,1,-90,0,0,NaN,0,48000,1,NaN,NaN,151,-26.143327746754,0,NaN
3,4,247,590,2.7466875,0.7,2,2,2,4,-90,0,0,NaN,0,48000,1,NaN,NaN,163,-47.1685461467001,0,NaN
3,4,248,550,2.70402083333333,0.7,0.2,2,1,2,90,1,1,90,0,48000,1,265.855666666539,0.0037614394778137,158,-31.5147962714923,996,4.58691215515137
3,4,249,480,2.7146875,0.7,2,0.2,1,1,90,1,1,90,0,48000,1,198.835999999574,0.0050292703534679,154,-26.9836084880936,999,-4.91202592849731
3,4,250,550,2.7866875,0.8,0.2,2,1,2,-90,0,0,NaN,0,48000,1,NaN,NaN,155,-31.517324900925,0,NaN
3,4,251,620,2.5786875,0.6,0.2,2,1,2,-90,1,1,-90,0,48000,1,181.800399997883,0.00550053795267582,157,-33.7144985512257,1008,-1.28478109836578
3,4,252,620,2.63202083333333,0.6,2,2,2,4,90,1,0,-90,0,48000,1,241.270266667925,0.00414472953427104,166,-51.5792774264612,1012,2.59049892425537
3,4,253,310,2.80802083333333,0.8,0.2,2,1,2,90,1,1,90,0,48000,1,193.508866666889,0.00516772185804501,158,-30.25832275853,1016,-3.87924432754517
3,4,254,450,2.8506875,0.8,0.2,0.2,2,3,90,1,0,-90,0,48000,1,161.986400000387,0.00617335776335303,162,-25.7509060882687,1019,-0.967428386211395
3,4,255,380,2.6426875,0.6,0.2,0.2,2,3,90,0,0,NaN,0,48000,1,NaN,NaN,160,-25.6234387143851,0,NaN
3,4,256,590,2.84002083333333,0.8,0.2,0.2,2,3,-90,1,0,90,0,48000,1,188.906366667652,0.00529362783076193,161,-26.991896449267,1028,6.73435258865356
3,4,257,380,2.8506875,0.8,2,2,2,4,90,1,1,90,0,48000,1,238.454100001036,0.00419367920281369,166,-45.3312456824629,1032,-2.14998149871826
3,4,258,550,2.69335416666667,0.7,0.2,2,1,2,-90,1,0,90,0,48000,1,219.41173333289,0.00455764140235292,157,-31.5132866644924,1035,-3.69359970092773
3,4,259,550,2.79735416666667,0.8,0.2,2,1,2,-90,0,0,NaN,0,48000,1,NaN,NaN,155,-31.5178537235696,0,NaN
3,4,260,310,2.84002083333333,0.8,0.2,0.2,2,3,-90,1,0,90,0,48000,1,196.245866663958,0.00509564872371225,161,-25.4233433055064,1043,-8.3513298034668
3,4,261,520,2.75735416666667,0.7,0.2,0.2,2,3,90,0,0,NaN,0,48000,1,NaN,NaN,160,-26.1006287731213,0,NaN
3,4,262,340,2.79735416666667,0.8,0.2,2,1,2,-90,0,0,NaN,0,48000,1,NaN,NaN,155,-31.009413316307,0,NaN
3,4,263,620,2.65335416666667,0.6,0.2,0.2,2,3,-90,0,0,NaN,0,48000,1,NaN,NaN,159,-29.5989292276349,0,NaN
3,4,264,450,2.8506875,0.8,2,2,2,4,-90,0,0,NaN,0,48000,1,NaN,NaN,163,-45.7937872555901,0,NaN
3,4,265,480,2.79735416666667,0.8,0.2,2,1,2,-90,1,0,90,0,48000,1,231.492033335599,0.00431980308605385,157,-30.3356673615812,1063,-7.12233066558838
3,4,266,380,2.80802083333333,0.8,0.2,2,1,2,-90,0,0,NaN,0,48000,1,NaN,NaN,155,-30.4949044123696,0,NaN
3,4,267,450,2.65335416666667,0.6,2,2,2,4,90,0,0,NaN,0,48000,1,NaN,NaN,164,-45.7132824814952,0,NaN
3,4,268,450,2.75735416666667,0.7,2,2,2,4,90,1,0,-90,0,48000,1,371.694933333856,0.00269037834610944,166,-45.653218705692,1076,NaN
3,4,269,520,2.8506875,0.8,0.2,0.2,2,3,90,1,0,-90,0,48000,1,236.919299999499,0.00422084650765941,162,-26.0425008454922,1080,1.91509342193604
3,4,270,590,2.60002083333333,0.6,0.2,2,1,2,-90,1,0,90,0,48000,1,180.706766665025,0.00553382708603099,157,-32.3925720486227,1083,-2.22115254402161
3,4,271,340,2.67202083333333,0.7,2,0.2,1,1,90,0,0,NaN,0,48000,1,NaN,NaN,152,-27.0639283457746,0,NaN
3,4,272,590,2.87202083333333,0.8,0.2,0.2,2,3,-90,1,0,90,0,48000,1,217.59846666464,0.004595620618693,161,-26.9583842904131,1092,-12.0329523086548
3,4,273,310,2.82402083333333,0.6,2,2,2,4,-90,1,1,-90,0,48000,1,173.25186666676,0.00577194358271153,165,-44.237299476544,1095,0.524371325969696
3,4,274,590,2.75735416666667,0.7,0.2,0.2,2,3,90,0,0,NaN,0,48000,1,NaN,NaN,160,-27.0267337637373,0,NaN
3,4,275,410,2.60002083333333,0.6,0.2,2,1,2,90,0,0,NaN,0,48000,1,NaN,NaN,156,-30.6086034661557,0,NaN
3,4,276,620,2.75735416666667,0.7,0.2,0.2,2,3,-90,1,1,-90,0,48000,1,211.949233331325,0.00471811095648916,161,-29.5832157873334,1107,1.65903627872467
3,4,277,520,2.67202083333333,0.7,2,0.2,1,1,90,0,0,NaN,0,48000,1,NaN,NaN,152,-27.9478838335769,0,NaN
3,4,278,590,2.6826875,0.7,2,0.2,1,1,-90,1,0,90,0,48000,1,213.761099999829,0.00467811963917102,153,-28.5302501737356,1115,-4.64025926589966
3,4,279,340,2.8506875,0.8,0.2,0.2,2,3,90,0,0,NaN,0,48000,1,NaN,NaN,160,-25.3764499394691,0,NaN
3,4,280,620,2.86135416666667,0.8,0.2,0.2,2,3,90,1,1,90,0,48000,1,208.786333332682,0.00478958552524887,162,-29.5848944731013,1124,4.67971467971802
3,4,281,520,2.5786875,0.6,2,0.2,1,1,-90,1,1,-90,0,48000,1,194.148600001427,0.00515069384993068,153,-27.4071401206593,1127,8.31863689422607
3,4,282,450,2.8506875,0.8,2,2,2,4,90,0,0,NaN,0,48000,1,NaN,NaN,164,-45.7937872555901,0,NaN
3,4,283,410,2.73602083333333,0.7,2,2,2,4,90,0,0,NaN,0,48000,1,NaN,NaN,164,-45.8672355155751,0,NaN
3,4,284,310,2.70402083333333,0.7,2,0.2,1,1,90,1,0,-90,0,48000,1,172.499666665317,0.00579711265147077,154,-26.6574337294923,1139,-7.72291660308838
3,4,285,550,2.7466875,0.7,2,2,2,4,90,0,0,NaN,0,48000,1,NaN,NaN,164,-45.2055695332962,0,NaN
3,4,286,380,2.80802083333333,0.8,0.2,2,1,2,90,0,0,NaN,0,48000,1,NaN,NaN,156,-30.4949044123696,0,NaN
3,4,287,520,2.7466875,0.7,2,2,2,4,-90,1,0,90,0,48000,1,159.004499999355,0.0062891301818757,165,-46.1553511943517,1151,-12.0655336380005
3,4,288,410,2.60002083333333,0.6,2,0.2,1,1,90,0,0,NaN,0,48000,1,NaN,NaN,152,-26.8001063056235,0,NaN
3,4,289,380,2.58935416666667,0.6,2,0.2,1,1,-90,1,1,-90,0,48000,1,185.082033332947,0.00540300958440999,153,-26.807908230844,1159,-13.5763111114502
3,4,290,550,2.79735416666667,0.8,0.2,2,1,2,90,0,0,NaN,0,48000,1,NaN,NaN,156,-31.5178537235696,0,NaN
3,4,291,550,2.79735416666667,0.8,2,0.2,1,1,90,0,0,NaN,0,48000,1,NaN,NaN,152,-28.254673205113,0,NaN
3,4,292,410,2.75735416666667,0.7,0.2,0.2,2,3,-90,0,0,NaN,0,48000,1,NaN,NaN,159,-25.5050297256631,0,NaN
3,4,293,380,2.84002083333333,0.8,0.2,0.2,2,3,90,1,0,-90,0,48000,1,171.289666664961,0.00583806378674306,162,-25.5754399390608,1175,5.03895378112793
3,4,294,480,2.7466875,0.7,0.2,0.2,2,3,-90,0,0,NaN,0,48000,1,NaN,NaN,159,-25.737289599966,0,NaN
3,4,295,450,2.69335416666667,0.7,2,0.2,1,1,-90,0,0,NaN,0,48000,1,NaN,NaN,151,-26.5193806994949,0,NaN
3,4,296,620,2.6426875,0.6,2,2,2,4,90,0,0,NaN,0,48000,1,NaN,NaN,164,-51.5508377630638,0,NaN
3,4,297,450,2.79735416666667,0.8,2,0.2,1,1,-90,0,0,NaN,0,48000,1,NaN,NaN,151,-26.8655015588954,0,NaN
3,4,298,410,2.65335416666667,0.6,0.2,0.2,2,3,90,0,0,NaN,0,48000,1,NaN,NaN,160,-25.5116573614955,0,NaN
3,4,299,410,2.80802083333333,0.8,0.2,2,1,2,-90,1,1,-90,0,48000,1,483.567966666669,0.0020679616288341,157,-30.6151734169963,1200,-0.893242418766022
3,4,300,310,2.82402083333333,0.6,2,2,2,4,90,1,1,90,0,48000,1,290.788366666675,0.0034389271189321,166,-44.237299476544,1204,-1.34828531742096
3,4,301,590,2.6826875,0.7,2,0.2,1,1,90,1,0,-90,0,48000,1,174.678299999869,0.0057248095499026,154,-28.5302501737356,1207,2.9834930896759
3,4,302,590,2.75735416666667,0.7,0.2,0.2,2,3,-90,0,0,NaN,0,48000,1,NaN,NaN,159,-27.0267337637373,0,NaN
3,4,303,480,2.79735416666667,0.8,2,0.2,1,1,-90,1,1,-90,0,48000,1,186.944516666699,0.00534918069719523,153,-27.3376354801822,1216,-1.75945210456848
3,4,304,340,2.79735416666667,0.8,2,0.2,1,1,90,1,1,90,0,48000,1,195.630433332553,0.0051116791133417,154,-26.7008970251373,1220,-3.356600522995
3,4,305,380,2.58935416666667,0.6,2,0.2,1,1,-90,1,1,-90,0,48000,1,178.423433331773,0.0056046449803515,153,-26.807908230844,1223,-2.90333962440491
3,4,306,340,2.58935416666667,0.6,2,0.2,1,1,90,0,0,NaN,0,48000,1,NaN,NaN,152,-26.8941483452588,0,NaN
3,4,307,590,2.8506875,0.8,2,2,2,4,-90,0,0,NaN,0,48000,1,NaN,NaN,163,-47.1676058851589,0,NaN
3,4,308,480,2.84002083333333,0.8,0.2,0.2,2,3,-90,0,0,NaN,0,48000,1,NaN,NaN,159,-25.7165306137454,0,NaN
3,4,309,380,2.60002083333333,0.6,0.2,2,1,2,90,1,0,-90,0,48000,1,230.431766665788,0.00433967943946883,158,-30.4957394002434,1240,-2.73522734642029
3,4,310,620,2.63202083333333,0.6,2,2,2,4,-90,1,0,90,0,48000,1,332.795266665926,0.00300485042957009,165,-51.5792774264612,1243,NaN
3,4,311,620,2.84002083333333,0.8,2,2,2,4,-90,0,0,NaN,0,48000,1,NaN,NaN,163,-51.5860672892659,0,NaN
3,4,312,310,2.79735416666667,0.8,2,0.2,1,1,-90,0,0,NaN,0,48000,1,NaN,NaN,151,-27.0651692787228,0,NaN
3,4,313,480,2.60002083333333,0.6,0.2,2,1,2,90,0,0,NaN,0,48000,1,NaN,NaN,156,-30.3366723770713,0,NaN
3,4,314,450,2.7466875,0.7,0.2,0.2,2,3,90,1,1,90,0,48000,1,257.408299999952,0.00388487861502596,162,-25.8133553038873,1259,-5.92228221893311
3,4,315,410,2.60002083333333,0.6,0.2,2,1,2,-90,0,0,NaN,0,48000,1,NaN,NaN,155,-30.6086034661557,0,NaN
3,4,316,620,2.5786875,0.6,0.2,2,1,2,90,1,1,90,0,48000,1,178.857399998378,0.00559104627490429,158,-33.7144985512257,1268,-10.2517232894897
3,4,317,590,2.79735416666667,0.8,0.2,2,1,2,90,1,1,90,0,48000,1,214.765833334241,0.00465623411543166,158,-32.3931640748448,1272,3.49364471435547
3,4,318,520,2.79735416666667,0.8,2,0.2,1,1,90,1,1,90,0,48000,1,254.01363333367,0.00393679656826296,154,-27.8201028497976,1276,-1.1176792383194
3,4,319,340,2.86135416666667,0.8,2,2,2,4,-90,1,0,90,0,48000,1,176.99413333321,0.00564990478027538,165,-44.7820324120601,1281,NaN
3,4,320,380,2.6426875,0.6,2,0.2,1,1,-90,0,0,NaN,0,48000,1,NaN,NaN,151,-26.0450215562927,0,NaN
3,5,321,590,2.65335416666667,0.6,2,2,2,4,90,1,0,-90,0,48000,1,220.949633332566,0.00452591835033658,166,-47.1992881788064,1290,-3.12752723693848
3,5,322,450,2.8506875,0.8,0.2,0.2,2,3,-90,1,0,90,0,48000,1,238.088800002515,0.00420011357102659,161,-25.7509060882687,1293,-1.33721828460693
3,5,323,480,2.65335416666667,0.6,0.2,0.2,2,3,-90,0,0,NaN,0,48000,1,NaN,NaN,159,-25.6873942649887,0,NaN
3,5,324,450,2.8506875,0.8,0.2,0.2,2,3,-90,1,0,90,0,48000,1,189.764900002046,0.00526967842835643,161,-25.7509060882687,1301,-5.50327205657959
3,5,325,450,2.69335416666667,0.7,2,0.2,1,1,90,0,0,NaN,0,48000,1,NaN,NaN,152,-26.5193806994949,0,NaN
3,5,326,590,2.65335416666667,0.6,2,2,2,4,-90,1,0,90,0,48000,1,170.058833331495,0.00588031789004868,165,-47.1992881788064,1309,NaN
3,5,327,550,2.7866875,0.8,0.2,2,1,2,90,0,0,NaN,0,48000,1,NaN,NaN,156,-31.517324900925,0,NaN
3,5,328,520,2.58935416666667,0.6,0.2,2,1,2,-90,0,0,NaN,0,48000,1,NaN,NaN,155,-31.479125381462,0,NaN
3,5,329,590,2.7466875,0.7,2,2,2,4,90,0,0,NaN,0,48000,1,NaN,NaN,164,-47.1685461467001,0,NaN
3,5,330,550,2.69335416666667,0.7,0.2,2,1,2,90,1,0,-90,0,48000,1,275.572333332093,0.00362881131029543,158,-31.5132866644924,1325,-0.638966083526611
3,5,331,480,2.7466875,0.7,0.2,0.2,2,3,90,0,0,NaN,0,48000,1,NaN,NaN,160,-25.737289599966,0,NaN
3,5,332,340,2.8506875,0.8,0.2,0.2,2,3,90,1,0,-90,0,48000,1,204.038000001674,0.00490104784398885,162,-25.2996497630897,1333,2.72605848312378
3,5,333,310,2.84002083333333,0.8,2,2,2,4,-90,0,0,NaN,0,48000,1,NaN,NaN,163,-44.5309137834883,0,NaN
3,5,334,620,2.65335416666667,0.6,0.2,0.2,2,3,90,0,0,NaN,0,48000,1,NaN,NaN,160,-29.5989292276349,0,NaN
3,5,335,380,2.7866875,0.8,2,0.2,1,1,-90,0,0,NaN,0,48000,1,NaN,NaN,151,-26.6854988546954,0,NaN
3,5,336,340,2.70402083333333,0.7,2,0.2,1,1,90,1,0,-90,0,48000,1,158.708266666508,0.00630086901586095,154,-27.0145526152145,1349,-12.287278175354
3,5,337,550,2.8506875,0.8,0.2,0.2,2,3,-90,0,0,NaN,0,48000,1,NaN,NaN,159,-25.9772364000523,0,NaN
3,5,338,520,2.65335416666667,0.6,0.2,0.2,2,3,90,1,1,90,0,48000,1,207.376533331626,0.00482214638240119,162,-26.0666157585722,1357,NaN
3,5,339,410,2.70402083333333,0.7,0.2,2,1,2,90,0,0,NaN,0,48000,1,NaN,NaN,156,-30.6098343590682,0,NaN
3,5,340,380,2.6426875,0.6,0.2,0.2,2,3,90,0,0,NaN,0,48000,1,NaN,NaN,160,-25.6080502222477,0,NaN
3,5,341,410,2.60002083333333,0.6,0.2,2,1,2,-90,0,0,NaN,0,48000,1,NaN,NaN,155,-30.6076009317786,0,NaN
3,5,342,410,2.75735416666667,0.7,0.2,0.2,2,3,-90,1,1,-90,0,48000,1,222.725633333539,0.00448982896594783,161,-25.4837939909084,1374,-8.30338668823242
3,5,343,450,2.86135416666667,0.8,2,2,2,4,-90,1,1,-90,0,48000,1,237.189533332639,0.00421603763854782,165,-45.6622922054217,1377,2.40027403831482
3,5,344,620,2.84002083333333,0.8,2,2,2,4,90,0,0,NaN,0,48000,1,NaN,NaN,164,-51.5860672892659,0,NaN
3,5,345,480,2.60002083333333,0.6,2,0.2,1,1,-90,1,1,-90,0,48000,1,193.208766664611,0.00517574858151177,153,-27.2335947598748,1386,-4.21697759628296
3,5,346,590,2.56802083333333,0.6,0.2,2,1,2,-90,1,0,90,0,48000,1,216.219766665745,0.00462492405491263,157,-32.3905686107578,1389,-1.02784705162048
3,5,347,620,2.84002083333333,0.8,2,2,2,4,-90,0,0,NaN,0,48000,1,NaN,NaN,163,-51.5860672892659,0,NaN
3,5,348,590,2.80802083333333,0.8,0.2,2,1,2,90,0,0,NaN,0,48000,1,NaN,NaN,156,-32.3889628794834,0,NaN
3,5,349,590,2.80802083333333,0.8,2,0.2,1,1,90,1,0,-90,0,48000,1,183.518266667306,0.00544904885034068,154,-28.9600281346329,1402,-6.84899616241455
3,5,350,480,2.7466875,0.7,2,2,2,4,90,1,1,90,0,48000,1,188.679000000775,0.00530000688998719,166,-45.7220127109915,1406,5.62485551834106
3,5,351,380,2.79735416666667,0.8,0.2,2,1,2,90,1,0,-90,0,48000,1,271.164833335206,0.00368779383263105,158,-30.497271998455,1410,5.38236665725708
3,5,352,310,2.70402083333333,0.7,0.2,2,1,2,-90,1,1,-90,0,48000,1,218.217066665602,0.00458259298999931,157,-30.256221462447,1414,-6.70625591278076
3,5,353,620,2.73602083333333,0.7,2,2,2,4,90,1,0,-90,0,48000,1,330.743466667627,0.00302349131813668,166,-51.5725657918571,1417,-7.91957998275757
3,5,354,480,2.65335416666667,0.6,0.2,0.2,2,3,90,0,0,NaN,0,48000,1,NaN,NaN,160,-25.6873942649887,0,NaN
3,5,355,520,2.7466875,0.7,2,2,2,4,-90,1,0,90,0,48000,1,208.57149999938,0.00479451890600093,165,-46.1553511943517,1426,-6.15745210647583
3,5,356,340,2.86135416666667,0.8,2,2,2,4,-90,1,0,90,0,48000,1,243.382633334477,0.00410875659573342,165,-44.7820324120601,1430,-2.25094199180603
3,5,357,450,2.75735416666667,0.7,2,2,2,4,90,1,0,-90,0,48000,1,234.283033332758,0.00426834152595111,166,-45.653218705692,1434,-1.7739645242691
3,5,358,380,2.79735416666667,0.8,0.2,2,1,2,90,1,0,-90,0,48000,1,204.704233336088,0.00488509682336749,158,-30.497271998455,1437,-3.22437715530396
3,5,359,550,2.6826875,0.7,2,0.2,1,1,90,0,0,NaN,0,48000,1,NaN,NaN,152,-28.1435736417476,0,NaN
3,5,360,450,2.70402083333333,0.7,2,0.2,1,1,-90,0,0,NaN,0,48000,1,NaN,NaN,151,-26.824131749048,0,NaN
3,5,361,480,2.65335416666667,0.6,2,2,2,4,90,1,0,-90,0,48000,1,214.066333332084,0.00467144919256726,166,-45.7280572642869,1449,-7.8995532989502
3,5,362,340,2.8506875,0.8,2,2,2,4,-90,0,0,NaN,0,48000,1,NaN,NaN,163,-44.7848900561069,0,NaN
3,5,363,620,2.69335416666667,0.7,2,0.2,1,1,-90,1,0,90,0,48000,1,201.822033333883,0.00495486039596903,153,-29.425792190953,1457,3.60113906860352
3,5,364,380,2.6426875,0.6,2,2,2,4,-90,0,0,NaN,0,48000,1,NaN,NaN,163,-45.3286182757882,0,NaN
3,5,365,380,2.80802083333333,0.8,0.2,2,1,2,-90,0,0,NaN,0,48000,1,NaN,NaN,155,-30.4949044123696,0,NaN
3,5,366,520,2.7466875,0.7,0.2,0.2,2,3,90,1,0,-90,0,48000,1,198.009999998249,0.00505024998741905,162,-26.0976723536443,1469,2.25645899772644
3,5,367,590,2.60002083333333,0.6,2,0.2,1,1,90,0,0,NaN,0,48000,1,NaN,NaN,152,-29.0274172785956,0,NaN
3,5,368,590,2.80802083333333,0.8,2,0.2,1,1,-90,1,0,90,0,48000,1,148.175766667919,0.00674874186574065,153,-28.9600281346329,1477,1.19309747219086
3,5,369,480,2.65335416666667,0.6,2,2,2,4,-90,0,0,NaN,0,48000,1,NaN,NaN,163,-45.7957641066375,0,NaN
3,5,370,410,2.60002083333333,0.6,0.2,2,1,2,90,0,0,NaN,0,48000,1,NaN,NaN,156,-30.6086034661557,0,NaN
3,5,371,380,2.79735416666667,0.8,2,0.2,1,1,-90,0,0,NaN,0,48000,1,NaN,NaN,151,-26.9161521411356,0,NaN
3,5,372,620,2.65335416666667,0.6,0.2,0.2,2,3,-90,0,0,NaN,0,48000,1,NaN,NaN,159,-29.5989292276349,0,NaN
3,5,373,340,2.79735416666667,0.8,0.2,2,1,2,-90,0,0,NaN,0,48000,1,NaN,NaN,155,-31.009413316307,0,NaN
3,5,374,380,2.69335416666667,0.7,0.2,2,1,2,-90,1,0,90,0,48000,1,339.460133332977,0.00294585402468777,157,-30.4955196197628,1502,-1.80538463592529
3,5,375,410,2.6826875,0.7,0.2,2,1,2,90,1,0,-90,0,48000,1,229.739300000801,0.00435275984560113,158,-30.6119666240238,1505,2.03007817268372
3,5,376,340,2.7466875,0.7,2,2,2,4,90,0,0,NaN,0,48000,1,NaN,NaN,164,-44.7739332459954,0,NaN
3,5,377,550,2.6826875,0.7,2,0.2,1,1,90,0,0,NaN,0,48000,1,NaN,NaN,152,-28.1435736417476,0,NaN
3,5,378,410,2.73602083333333,0.7,2,2,2,4,90,0,0,NaN,0,48000,1,NaN,NaN,164,-45.8850491594035,0,NaN
3,5,379,620,2.69335416666667,0.7,2,0.2,1,1,90,1,0,-90,0,48000,1,200.535133333688,0.00498665736709594,154,-29.425792190953,1521,1.19688665866852
3,5,380,480,2.7866875,0.8,2,0.2,1,1,-90,0,0,NaN,0,48000,1,NaN,NaN,151,-27.3580569659306,0,NaN
3,5,381,480,2.8506875,0.8,2,2,2,4,90,0,0,NaN,0,48000,1,NaN,NaN,164,-45.7758998205661,0,NaN
3,5,382,450,2.69335416666667,0.7,0.2,2,1,2,-90,0,0,NaN,0,48000,1,NaN,NaN,155,-29.6634983540999,0,NaN
3,5,383,480,2.66402083333333,0.6,0.2,0.2,2,3,90,0,0,NaN,0,48000,1,NaN,NaN,160,-25.6858090325661,0,NaN
3,5,384,620,2.67202083333333,0.7,0.2,2,1,2,-90,1,0,90,0,48000,1,212.961766666922,0.00469567855137128,157,-33.7033735868739,1542,0.450213223695755
3,5,385,520,2.5786875,0.6,2,0.2,1,1,90,1,1,90,0,48000,1,226.507500001389,0.0044148648499227,154,-27.4071401206593,1546,-8.04426860809326
3,5,386,620,2.80802083333333,0.8,2,0.2,1,1,-90,1,0,90,0,48000,1,198.422266668786,0.00503975696270641,153,-29.7376542973903,1549,3.91817045211792
3,5,387,450,2.60002083333333,0.6,0.2,2,1,2,90,0,0,NaN,0,48000,1,NaN,NaN,156,-29.6651646075757,0,NaN
3,5,388,340,2.73602083333333,0.7,0.2,0.2,2,3,-90,0,0,NaN,0,48000,1,NaN,NaN,159,-25.3725880147873,0,NaN
3,5,389,410,2.6426875,0.6,2,2,2,4,-90,1,1,-90,0,48000,1,367.099199998847,0.00272405932784147,165,-45.8589666178859,1561,-4.48655462265015
3,5,390,310,2.66402083333333,0.6,0.2,0.2,2,3,-90,0,0,NaN,0,48000,1,NaN,NaN,159,-25.4433411120907,0,NaN
3,5,391,590,2.77602083333333,0.8,2,0.2,1,1,-90,1,0,90,0,48000,1,201.458766665382,0.00496379490727734,153,-28.743945045706,1570,6.76164960861206
3,5,392,410,2.80802083333333,0.8,0.2,2,1,2,90,1,1,90,0,48000,1,232.748066666318,0.00429649111300101,158,-30.6151734169963,1574,-1.82049429416656
3,5,393,450,2.65335416666667,0.6,0.2,0.2,2,3,90,1,0,-90,0,48000,1,212.241333332713,0.00471161759256564,162,-25.7815819471722,1578,-2.94851350784302
3,5,394,590,2.87202083333333,0.8,0.2,0.2,2,3,-90,1,0,90,0,48000,1,222.092666666867,0.00450262503038865,161,-26.9583842904131,1581,-0.978649616241455
3,5,395,480,2.7866875,0.8,2,0.2,1,1,-90,0,0,NaN,0,48000,1,NaN,NaN,151,-27.3580569659306,0,NaN
3,5,396,590,2.60002083333333,0.6,2,0.2,1,1,90,0,0,NaN,0,48000,1,NaN,NaN,152,-29.0512399463374,0,NaN
3,5,397,450,2.79735416666667,0.8,2,0.2,1,1,90,1,0,-90,0,48000,1,289.928633335876,0.00344912466386693,154,-26.6712233821751,1594,-4.74819326400757
3,5,398,380,2.84002083333333,0.8,0.2,0.2,2,3,90,1,0,-90,0,48000,1,343.546066666022,0.00291081778261822,162,-25.5754399390608,1598,NaN
3,5,399,380,2.60002083333333,0.6,0.2,2,1,2,-90,1,0,90,0,48000,1,200.279066664734,0.00499303305459273,157,-30.4957394002434,1605,-5.52645301818848
3,5,400,520,2.8506875,0.8,0.2,0.2,2,3,-90,1,0,90,0,48000,1,199.954800000341,0.00500113025542919,161,-26.0425008454922,1609,-2.16423964500427
3,6,401,310,2.73602083333333,0.7,2,2,2,4,-90,1,0,90,1,48000,1,178.52326666798,0.00560151076475545,165,-24.4628930946721,1613,2.39389061927795
3,6,402,480,2.60002083333333,0.6,0.2,2,1,2,90,1,1,90,1,48000,1,165.215866665676,0.00605268743360805,158,-10.336528611238,1617,-1.51292204856873
3,6,403,520,2.65335416666667,0.6,0.2,0.2,2,3,-90,1,1,-90,1,48000,1,178.617933332134,0.00559854199040884,161,-6.06661575857216,1620,-2.76825666427612
3,6,404,410,2.60002083333333,0.6,0.2,2,1,2,90,0,0,NaN,1,48000,1,NaN,NaN,156,-10.6076009317786,0,NaN
3,6,405,380,2.7866875,0.8,2,0.2,1,1,-90,0,0,NaN,1,48000,1,NaN,NaN,151,-6.68549885469536,0,NaN
3,6,406,450,2.60002083333333,0.6,2,0.2,1,1,90,1,0,-90,1,48000,1,163.172066666448,0.0061284999352504,154,-6.23302428540172,1632,4.51848793029785
3,6,407,410,2.73602083333333,0.7,2,2,2,4,-90,0,0,NaN,1,48000,1,NaN,NaN,163,-25.8850491594035,0,NaN
3,6,408,550,2.8506875,0.8,2,2,2,4,90,1,1,90,1,48000,1,158.111900002041,0.0063246346415867,166,-25.2711276773582,1640,2.16735553741455
3,6,409,520,2.65335416666667,0.6,2,2,2,4,90,0,0,NaN,1,48000,1,NaN,NaN,164,-26.1629696085968,0,NaN
3,6,410,380,2.80802083333333,0.8,0.2,2,1,2,90,0,0,NaN,1,48000,1,NaN,NaN,156,-10.4949044123696,0,NaN
3,6,411,550,2.69335416666667,0.7,0.2,2,1,2,90,1,0,-90,1,48000,1,171.766933335675,0.00582184231027605,158,-11.5132866644924,1653,-7.05417919158936
3,6,412,450,2.60002083333333,0.6,2,0.2,1,1,-90,1,0,90,1,48000,1,152.987666666377,0.00653647461779203,153,-6.23302428540172,1656,-2.84472608566284
3,6,413,520,2.69335416666667,0.7,0.2,2,1,2,-90,0,0,NaN,1,48000,1,NaN,NaN,155,-11.4829288227894,0,NaN
3,6,414,410,2.60002083333333,0.6,0.2,2,1,2,90,0,0,NaN,1,48000,1,NaN,NaN,156,-10.6076009317786,0,NaN
3,6,415,310,2.60002083333333,0.6,2,0.2,1,1,-90,0,0,NaN,1,48000,1,NaN,NaN,151,-7.10892649311531,0,NaN
3,6,416,620,2.7466875,0.7,0.2,0.2,2,3,-90,1,0,90,1,48000,1,168.921683334702,0.0059199031187642,161,-9.60637461449866,1673,-11.9579515457153
3,6,417,480,2.65335416666667,0.6,2,2,2,4,-90,1,0,90,1,48000,1,174.627533333478,0.00572647383210955,165,-25.7280572642869,1676,2.19464159011841
3,6,418,410,2.76802083333333,0.7,2,0.2,1,1,90,0,0,NaN,1,48000,1,NaN,NaN,152,-6.14332774675402,0,NaN
3,6,419,410,2.60002083333333,0.6,2,0.2,1,1,90,0,0,NaN,1,48000,1,NaN,NaN,152,-6.80010630562352,0,NaN
3,6,420,380,2.6426875,0.6,0.2,0.2,2,3,-90,0,0,NaN,1,48000,1,NaN,NaN,159,-5.60805022224769,0,NaN
3,6,421,380,2.8506875,0.8,2,2,2,4,-90,1,1,-90,1,48000,1,174.336800000674,0.00573602360486216,165,-25.3312456824629,1693,8.91285228729248
3,6,422,590,2.84002083333333,0.8,0.2,0.2,2,3,-90,1,0,90,1,48000,1,196.440366666138,0.00509060340790118,161,-6.99189644926704,1697,-4.33878421783447
3,6,423,520,2.79735416666667,0.8,2,0.2,1,1,-90,1,1,-90,1,48000,1,160.400033335463,0.00623441266940751,153,-7.82010284979759,1700,NaN
3,6,424,410,2.84002083333333,0.8,2,2,2,4,90,0,0,NaN,1,48000,1,NaN,NaN,164,-25.8800026104858,0,NaN
3,6,425,520,2.75735416666667,0.7,0.2,0.2,2,3,-90,0,0,NaN,1,48000,1,NaN,NaN,159,-6.10062877312127,0,NaN
3,6,426,340,2.8506875,0.8,0.2,0.2,2,3,-90,0,0,NaN,1,48000,1,NaN,NaN,159,-5.37644993946909,0,NaN
3,6,427,620,2.65335416666667,0.6,0.2,0.2,2,3,90,1,1,90,1,48000,1,171.059866666837,0.00584590657928921,162,-9.55410559156286,1717,NaN
3,6,428,380,2.84002083333333,0.8,0.2,0.2,2,3,90,1,0,-90,1,48000,1,172.426966664716,0.00579955687525663,162,-5.54960602783979,1721,2.15584492683411
3,6,429,310,2.84002083333333,0.8,0.2,0.2,2,3,90,1,0,-90,1,48000,1,190.92506666675,0.00523765693765841,162,-5.42334330550636,1725,-12.5973196029663
3,6,430,310,2.73602083333333,0.7,2,2,2,4,-90,1,0,90,1,48000,1,189.913966667518,0.00526554216915861,165,-24.4628930946721,1728,-0.557007670402527
3,6,431,480,2.7866875,0.8,2,0.2,1,1,90,0,0,NaN,1,48000,1,NaN,NaN,152,-7.35805696593057,0,NaN
3,6,432,310,2.7466875,0.7,2,2,2,4,-90,0,0,NaN,1,48000,1,NaN,NaN,163,-24.5314979319913,0,NaN
3,6,433,520,2.7466875,0.7,2,2,2,4,90,1,0,-90,1,48000,1,203.625299998748,0.00491098110110162,166,-26.1553511943517,1740,-1.5061970949173
3,6,434,340,2.8506875,0.8,2,2,2,4,-90,0,0,NaN,1,48000,1,NaN,NaN,163,-24.7848900561069,0,NaN
3,6,435,340,2.79735416666667,0.8,0.2,2,1,2,90,0,0,NaN,1,48000,1,NaN,NaN,156,-11.009413316307,0,NaN
3,6,436,310,2.80802083333333,0.8,0.2,2,1,2,-90,1,1,-90,1,48000,1,231.137366667099,0.00432643156932853,157,-10.25832275853,1752,3.96538066864014
3,6,437,480,2.8506875,0.8,0.2,0.2,2,3,90,0,0,NaN,1,48000,1,NaN,NaN,160,-5.69079160745487,0,NaN
3,6,438,550,2.6826875,0.7,2,0.2,1,1,-90,0,0,NaN,1,48000,1,NaN,NaN,151,-8.14357364174756,0,NaN
3,6,439,480,2.69335416666667,0.7,0.2,2,1,2,90,1,1,90,1,48000,1,210.673933333965,0.00474667171289188,158,-10.3356881309753,1765,-6.36236572265625
3,6,440,410,2.6426875,0.6,2,2,2,4,-90,1,1,-90,1,48000,1,209.35499999905,0.00477657567292177,165,-25.8589666178859,1769,2.29198169708252
3,6,441,410,2.6106875,0.6,2,0.2,1,1,-90,1,1,-90,1,48000,1,194.359900000563,0.00514509422981336,153,-6.94975942098656,1773,-8.35466384887695
3,6,442,310,2.7706875,0.6,2,0.2,1,1,-90,1,1,-90,1,48000,1,241.498699999283,0.00414080903956405,153,-4.92946481251243,1776,NaN
3,6,443,550,2.6826875,0.7,2,0.2,1,1,-90,0,0,NaN,1,48000,1,NaN,NaN,151,-8.14357364174756,0,NaN
3,6,444,480,2.8506875,0.8,2,2,2,4,-90,0,0,NaN,1,48000,1,NaN,NaN,163,-25.775899820566,0,NaN
3,6,445,480,2.65335416666667,0.6,0.2,0.2,2,3,-90,0,0,NaN,1,48000,1,NaN,NaN,159,-5.68739426498871,0,NaN
3,6,446,590,2.65335416666667,0.6,0.2,0.2,2,3,-90,1,1,-90,1,48000,1,176.859833332855,0.00565419508293876,161,-6.94163705968263,1792,-10.150297164917
3,6,447,310,2.7466875,0.7,2,2,2,4,90,0,0,NaN,1,48000,1,NaN,NaN,164,-24.5314979319913,0,NaN
3,6,448,480,2.66402083333333,0.6,0.2,0.2,2,3,90,0,0,NaN,1,48000,1,NaN,NaN,160,-5.68580903256607,0,NaN
3,6,449,310,2.76002083333333,0.6,0.2,2,1,2,-90,0,0,NaN,1,48000,1,NaN,NaN,155,-10.2725693694007,0,NaN
3,6,450,620,2.60002083333333,0.6,2,0.2,1,1,-90,0,0,NaN,1,48000,1,NaN,NaN,151,-9.83527719809979,0,NaN
3,6,451,550,2.69335416666667,0.7,2,0.2,1,1,90,1,1,90,1,48000,1,226.986233334173,0.00440555352327373,154,-8.19440237303365,1813,NaN
3,6,452,520,2.70402083333333,0.7,2,0.2,1,1,90,1,0,-90,1,48000,1,578.412966668111,0.00172886857250175,154,-7.93317131466412,1816,1.63908755779266
3,6,453,450,2.7466875,0.7,0.2,0.2,2,3,90,0,0,NaN,1,48000,1,NaN,NaN,160,-5.84222960390993,0,NaN
3,6,454,310,2.6426875,0.6,2,2,2,4,90,1,1,90,1,48000,1,244.811699998536,0.00408477209220793,166,-24.4980094463332,1825,-2.60561609268188
3,6,455,480,2.69335416666667,0.7,0.2,2,1,2,-90,1,1,-90,1,48000,1,205.476433333388,0.0048667381644565,157,-10.3356881309753,1828,-6.46825170516968
3,6,456,450,2.60002083333333,0.6,0.2,2,1,2,-90,0,0,NaN,1,48000,1,NaN,NaN,155,-9.66516460757569,0,NaN
3,6,457,340,2.79735416666667,0.8,2,0.2,1,1,90,1,1,90,1,48000,1,225.28873333431,0.00443874837946771,154,-7.18947460959856,1837,0.989600718021393
3,6,458,380,2.60002083333333,0.6,0.2,2,1,2,90,1,0,-90,1,48000,1,327.272766664464,0.00305555518777781,158,-10.4957394002434,1841,0.720284581184387
3,6,459,310,2.84002083333333,0.8,0.2,0.2,2,3,-90,1,0,90,1,48000,1,250.291666665362,0.00399533877145416,161,-5.42334330550636,1845,NaN
3,6,460,480,2.69335416666667,0.7,0.2,2,1,2,-90,1,1,-90,1,48000,1,241.348933333938,0.00414337857717551,157,-10.3356881309753,1849,NaN
3,6,461,480,2.60002083333333,0.6,0.2,2,1,2,-90,1,1,-90,1,48000,1,215.629766666098,0.0046375786398197,157,-10.336528611238,1852,-1.47264730930328
3,6,462,380,2.6426875,0.6,2,2,2,4,90,0,0,NaN,1,48000,1,NaN,NaN,164,-25.3286182757883,0,NaN
3,6,463,450,2.69335416666667,0.7,0.2,2,1,2,-90,0,0,NaN,1,48000,1,NaN,NaN,155,-9.66349835409994,0,NaN
3,6,464,340,2.79735416666667,0.8,2,0.2,1,1,-90,1,1,-90,1,48000,1,273.925833334943,0.00365062319177925,153,-7.18947460959856,1864,NaN
3,6,465,590,2.80802083333333,0.8,0.2,2,1,2,-90,0,0,NaN,1,48000,1,NaN,NaN,155,-12.3889628794834,0,NaN
3,6,466,310,2.73602083333333,0.7,0.2,0.2,2,3,90,1,0,-90,1,48000,1,185.876766667207,0.00537990851643335,162,-5.458008290575,1872,3.73362278938293
3,6,467,620,2.6426875,0.6,2,2,2,4,-90,0,0,NaN,1,48000,1,NaN,NaN,163,-31.5508377630638,0,NaN
3,6,468,550,2.8506875,0.8,0.2,0.2,2,3,90,0,0,NaN,1,48000,1,NaN,NaN,160,-5.97723640005229,0,NaN
3,6,469,310,2.73602083333333,0.7,2,2,2,4,90,1,0,-90,1,48000,1,347.696466667912,0.00287607179211029,166,-24.4628930946721,1885,NaN
3,6,470,340,2.70402083333333,0.7,0.2,2,1,2,-90,1,0,90,1,48000,1,505.933866665146,0.00197654291575989,157,-11.0108631587499,1888,-2.10185718536377
3,6,471,310,2.73602083333333,0.7,0.2,0.2,2,3,90,0,0,NaN,1,48000,1,NaN,NaN,160,-5.5374644289149,0,NaN
3,6,472,620,2.63202083333333,0.6,2,2,2,4,90,1,0,-90,1,48000,1,214.49926666719,0.00466202060052526,166,-31.5792774264613,1896,-0.273847311735153
3,6,473,310,2.60002083333333,0.6,2,0.2,1,1,90,0,0,NaN,1,48000,1,NaN,NaN,152,-7.10892649311531,0,NaN
3,6,474,520,2.58935416666667,0.6,2,0.2,1,1,90,1,0,-90,1,48000,1,174.631733332717,0.00572633610693625,154,-7.48403396473445,1905,-2.64393591880798
3,6,475,450,2.77602083333333,0.8,0.2,2,1,2,90,1,0,-90,1,48000,1,160.639566664031,0.00622511639421592,158,-9.66533669749703,1908,1.41120958328247
3,6,476,550,2.65335416666667,0.6,0.2,0.2,2,3,-90,0,0,NaN,1,48000,1,NaN,NaN,159,-5.98036092551974,0,NaN
3,6,477,590,2.8506875,0.8,2,2,2,4,90,0,0,NaN,1,48000,1,NaN,NaN,164,-27.1676058851589,0,NaN
3,6,478,410,2.70402083333333,0.7,2,0.2,1,1,90,0,0,NaN,1,48000,1,NaN,NaN,152,-7.36507481541321,0,NaN
3,6,479,410,2.75735416666667,0.7,0.2,0.2,2,3,90,1,1,90,1,48000,1,188.378233331605,0.00530846893674645,162,-5.48379399090838,1926,-4.93278837203979
3,6,480,340,2.67202083333333,0.7,0.2,2,1,2,90,0,0,NaN,1,48000,1,NaN,NaN,156,-11.0071832177257,0,NaN
3,7,481,480,2.8506875,0.8,2,2,2,4,-90,0,0,NaN,1,48000,1,NaN,NaN,163,-25.775899820566,0,NaN
3,7,482,550,2.7466875,0.7,0.2,0.2,2,3,90,0,0,NaN,1,48000,1,NaN,NaN,160,-5.97123323114917,0,NaN
3,7,483,380,2.60002083333333,0.6,0.2,2,1,2,-90,0,0,NaN,1,48000,1,NaN,NaN,155,-10.4912613090591,0,NaN
3,7,484,620,2.6106875,0.6,2,0.2,1,1,90,1,1,90,1,48000,1,190.161800001079,0.00525867971377179,154,-9.73208827376332,1946,NaN
3,7,485,550,2.7466875,0.7,0.2,0.2,2,3,90,0,0,NaN,1,48000,1,NaN,NaN,160,-5.97123323114917,0,NaN
3,7,486,590,2.65335416666667,0.6,0.2,0.2,2,3,90,1,1,90,1,48000,1,170.306833333598,0.0058717549990563,162,-6.94163705968263,1954,-6.84074878692627
3,7,487,520,2.60002083333333,0.6,0.2,2,1,2,90,0,0,NaN,1,48000,1,NaN,NaN,156,-11.4825548672349,0,NaN
3,7,488,620,2.5786875,0.6,0.2,2,1,2,90,1,1,90,1,48000,1,225.38909999821,0.00443677178713585,158,-13.7144985512257,1962,-5.03183364868164
3,7,489,550,2.79735416666667,0.8,2,0.2,1,1,-90,0,0,NaN,1,48000,1,NaN,NaN,151,-8.25467320511301,0,NaN
3,7,490,410,2.65335416666667,0.6,0.2,0.2,2,3,-90,1,1,-90,1,48000,1,186.618466665095,0.00535852650528201,161,-5.44295515047226,1971,-6.71633720397949
3,7,491,310,2.70402083333333,0.7,2,0.2,1,1,-90,1,0,90,1,48000,1,165.166066666643,0.00605451240791678,153,-6.65743372949228,1974,0.827381372451782
3,7,492,410,2.84002083333333,0.8,2,2,2,4,-90,0,0,NaN,1,48000,1,NaN,NaN,163,-25.8800026104858,0,NaN
3,7,493,410,2.79735416666667,0.8,2,0.2,1,1,90,0,0,NaN,1,48000,1,NaN,NaN,152,-7.34875373629824,0,NaN
3,7,494,410,2.6106875,0.6,2,0.2,1,1,90,1,1,90,1,48000,1,400.698000001285,0.00249564509929372,154,-6.94975942098656,1986,3.42462134361267
3,7,495,480,2.60002083333333,0.6,0.2,2,1,2,-90,0,0,NaN,1,48000,1,NaN,NaN,155,-10.3366723770713,0,NaN
3,7,496,340,2.7866875,0.8,0.2,2,1,2,90,0,0,NaN,1,48000,1,NaN,NaN,156,-11.0076522909639,0,NaN
3,7,497,590,2.6426875,0.6,0.2,0.2,2,3,-90,0,0,NaN,1,48000,1,NaN,NaN,159,-7.02588747325671,0,NaN
3,7,498,410,2.6426875,0.6,2,2,2,4,-90,1,1,-90,1,48000,1,180.958099999771,0.00552614113433589,165,-25.884107471431,2003,-5.6878719329834
3,7,499,520,2.66402083333333,0.6,0.2,0.2,2,3,90,1,0,-90,1,48000,1,150.377066665897,0.00664995016974078,162,-6.06548662597362,2007,3.09685707092285
3,7,500,380,2.84002083333333,0.8,0.2,0.2,2,3,-90,1,0,90,1,48000,1,152.262316665656,0.00656761319477257,161,-5.57543993906074,2011,-2.02199935913086
3,7,501,450,2.79735416666667,0.8,2,0.2,1,1,90,1,0,-90,1,48000,1,162.444600002345,0.00615594485741946,154,-6.67122338217511,2014,6.59971761703491
3,7,502,550,2.79735416666667,0.8,0.2,2,1,2,90,0,0,NaN,1,48000,1,NaN,NaN,156,-11.5178537235696,0,NaN
3,7,503,590,2.60002083333333,0.6,2,0.2,1,1,-90,0,0,NaN,1,48000,1,NaN,NaN,151,-9.02741727859558,0,NaN
3,7,504,310,3.04802083333333,0.6,0.2,0.2,2,3,-90,1,1,-90,1,48000,1,330.490966667639,0.00302580131034461,161,-4.98560800028756,2027,-1.8290468454361
3,7,505,550,2.70402083333333,0.7,0.2,2,1,2,-90,1,1,-90,1,48000,1,218.878066667457,0.00456875380537468,157,-11.5147962714923,2030,NaN
3,7,506,590,2.8506875,0.8,2,2,2,4,-90,0,0,NaN,1,48000,1,NaN,NaN,163,-27.1805662280262,0,NaN
3,7,507,450,2.7466875,0.7,0.2,0.2,2,3,-90,0,0,NaN,1,48000,1,NaN,NaN,159,-5.84222960390993,0,NaN
3,7,508,380,2.8506875,0.8,2,2,2,4,90,1,1,90,1,48000,1,193.895000000339,0.00515743056808197,166,-25.3312456824629,2042,-1.51599788665771
3,7,509,480,2.60002083333333,0.6,0.2,2,1,2,-90,0,0,NaN,1,48000,1,NaN,NaN,155,-10.3366723770713,0,NaN
3,7,510,380,2.79735416666667,0.8,0.2,2,1,2,-90,1,0,90,1,48000,1,185.692633333019,0.00538524324875403,157,-10.497271998455,2051,0.771937489509583
3,7,511,480,2.60002083333333,0.6,0.2,2,1,2,90,1,1,90,1,48000,1,219.552766666311,0.00455471372638113,158,-10.336528611238,2055,-10.9834289550781
3,7,512,340,2.86135416666667,0.8,2,2,2,4,90,1,0,-90,1,48000,1,170.38763333403,0.00586897053754826,166,-24.7820324120601,2059,NaN
3,7,513,590,2.65335416666667,0.6,2,2,2,4,90,1,0,-90,1,48000,1,193.617533333963,0.00516482150547357,166,-27.1992881788064,2062,7.96561002731323
3,7,514,520,2.8506875,0.8,2,2,2,4,90,0,0,NaN,1,48000,1,NaN,NaN,164,-26.146648364655,0,NaN
3,7,515,550,2.60002083333333,0.6,2,0.2,1,1,-90,0,0,NaN,1,48000,1,NaN,NaN,151,-8.30111371258492,0,NaN
3,7,516,620,2.75735416666667,0.7,0.2,0.2,2,3,90,1,1,90,1,48000,1,176.212933332863,0.00567495234933192,162,-9.58321578733341,2075,-8.1779899597168
3,7,517,340,2.70402083333333,0.7,0.2,2,1,2,90,1,0,-90,1,48000,1,173.105666664924,0.0057768183980694,158,-11.0108631587499,2078,5.99958753585815
3,7,518,340,2.58935416666667,0.6,2,0.2,1,1,-90,0,0,NaN,1,48000,1,NaN,NaN,151,-6.89414834525881,0,NaN
3,7,519,450,2.77602083333333,0.8,0.2,2,1,2,90,1,0,-90,1,48000,1,165.194566667196,0.00605346786020279,158,-9.66533669749703,2087,NaN
3,7,520,480,2.7466875,0.7,2,2,2,4,-90,1,1,-90,1,48000,1,176.836900000126,0.00565492835488119,165,-25.7220127109915,2090,0.848119854927063
3,7,521,410,2.70402083333333,0.7,0.2,2,1,2,90,0,0,NaN,1,48000,1,NaN,NaN,156,-10.6098343590682,0,NaN
3,7,522,380,2.60002083333333,0.6,0.2,2,1,2,-90,1,0,90,1,48000,1,264.906866666934,0.00377491158527535,157,-10.4957394002434,2099,-4.20991468429565
3,7,523,620,2.69335416666667,0.7,0.2,2,1,2,-90,1,0,90,1,48000,1,158.999333332758,0.00628933454649883,157,-13.7059704669345,2102,3.59826850891113
3,7,524,310,2.66402083333333,0.6,0.2,0.2,2,3,90,0,0,NaN,1,48000,1,NaN,NaN,160,-5.4433411120907,0,NaN
3,7,525,520,2.7466875,0.7,0.2,0.2,2,3,-90,1,0,90,1,48000,1,190.605100000539,0.00524644933423697,161,-6.09767235364425,2111,0.252161234617233
3,7,526,410,2.84002083333333,0.8,0.2,0.2,2,3,-90,0,0,NaN,1,48000,0,545.319966664465,0.00183378577923097,159,-5.50549653722435,0,NaN
3,7,527,380,2.84002083333333,0.8,0.2,0.2,2,3,-90,1,0,90,1,48000,1,244.902566664678,0.00408325651143219,161,-5.54960602783979,2120,-1.26493215560913
3,7,528,520,2.6426875,0.6,2,2,2,4,-90,1,1,-90,1,48000,1,230.698999997912,0.00433465251262055,165,-26.1598362808608,2124,2.47403120994568
3,7,529,340,2.79735416666667,0.8,2,0.2,1,1,90,1,1,90,1,48000,1,219.430733333866,0.00455724676669832,154,-6.70089702513732,2127,-2.02502059936523
3,7,530,340,2.7866875,0.8,0.2,2,1,2,-90,0,0,NaN,1,48000,1,NaN,NaN,155,-11.0076522909639,0,NaN
3,7,531,340,2.6426875,0.6,2,2,2,4,-90,1,0,90,1,48000,1,210.215799999787,0.00475701636128689,165,-24.7764334217339,2135,-0.272133082151413
3,7,532,380,2.6826875,0.7,2,0.2,1,1,-90,0,0,NaN,1,48000,1,NaN,NaN,151,-6.82378515402932,0,NaN
3,7,533,340,2.70402083333333,0.7,0.2,2,1,2,-90,1,0,90,1,48000,1,270.713066665849,0.00369394803256519,157,-11.0108631587499,2143,-1.21738481521606
3,7,534,310,2.79735416666667,0.8,2,0.2,1,1,90,0,0,NaN,1,48000,1,NaN,NaN,152,-7.06516927872283,0,NaN
3,7,535,480,2.79735416666667,0.8,2,0.2,1,1,-90,1,1,-90,1,48000,1,198.514133333447,0.00503742470728916,153,-7.33763548018218,2151,4.78303670883179
3,7,536,520,2.73602083333333,0.7,2,2,2,4,90,0,0,NaN,1,48000,1,NaN,NaN,164,-26.1596382760859,0,NaN
3,7,537,480,2.84002083333333,0.8,0.2,0.2,2,3,-90,0,0,NaN,1,48000,1,NaN,NaN,159,-5.71653061374535,0,NaN
3,7,538,410,2.6106875,0.6,2,0.2,1,1,-90,1,1,-90,1,48000,1,224.750100001984,0.00444938622937731,153,-6.94975942098656,2164,-5.48031425476074
3,7,539,520,2.70402083333333,0.7,2,0.2,1,1,-90,1,0,90,1,48000,1,222.112366665897,0.00450222567527817,153,-7.93317131466412,2167,-6.07469367980957
3,7,540,410,2.75735416666667,0.7,0.2,0.2,2,3,90,0,0,NaN,1,48000,1,NaN,NaN,160,-5.50502972566309,0,NaN
3,7,541,590,2.60002083333333,0.6,2,0.2,1,1,90,0,0,NaN,1,48000,1,NaN,NaN,152,-9.05123994633743,0,NaN
3,7,542,380,2.6426875,0.6,2,2,2,4,90,0,0,NaN,1,48000,1,NaN,NaN,164,-25.3236453849584,0,NaN
3,7,543,380,2.6826875,0.7,2,0.2,1,1,90,0,0,NaN,1,48000,1,NaN,NaN,152,-6.82378515402932,0,NaN
3,7,544,620,2.70402083333333,0.7,2,0.2,1,1,90,0,0,NaN,1,48000,1,NaN,NaN,152,-9.80895335063745,0,NaN
3,7,545,340,2.79735416666667,0.8,2,0.2,1,1,-90,1,1,-90,1,48000,1,205.078833332664,0.00487617363405747,153,-6.70089702513732,2192,5.50526905059814
3,7,546,480,2.7146875,0.7,2,0.2,1,1,90,1,1,90,1,48000,1,194.928799999616,0.00513007826448411,154,-6.98360848809355,2195,0.573475182056427
3,7,547,590,2.80802083333333,0.8,0.2,2,1,2,-90,0,0,NaN,1,48000,1,NaN,NaN,155,-12.3889628794834,0,NaN
3,7,548,450,2.8506875,0.8,0.2,0.2,2,3,90,1,1,90,1,48000,1,339.956900001198,0.00294154935521672,162,-5.76249331861431,2203,-7.48323249816895
3,7,549,520,2.73602083333333,0.7,2,2,2,4,90,0,0,NaN,1,48000,1,NaN,NaN,164,-26.1596382760859,0,NaN
3,7,550,480,2.79735416666667,0.8,0.2,2,1,2,90,1,1,90,1,48000,1,209.307333332617,0.00477766346777189,158,-10.335784807453,2211,-0.920918762683868
3,7,551,310,2.73602083333333,0.7,0.2,0.2,2,3,-90,0,0,NaN,1,48000,1,NaN,NaN,159,-5.5374644289149,0,NaN
3,7,552,480,2.84002083333333,0.8,0.2,0.2,2,3,90,0,0,NaN,1,48000,1,NaN,NaN,160,-5.71653061374535,0,NaN
3,7,553,480,2.65335416666667,0.6,2,2,2,4,90,0,0,NaN,1,48000,1,NaN,NaN,164,-25.7957641066376,0,NaN
3,7,554,340,2.7466875,0.7,2,2,2,4,-90,1,1,-90,1,48000,1,247.456799999782,0.00404110939768429,165,-24.7752655522815,2227,1.57671391963959
3,7,555,310,2.7466875,0.7,2,2,2,4,-90,0,0,NaN,1,48000,1,NaN,NaN,163,-24.5314979319913,0,NaN
3,7,556,480,2.7466875,0.7,2,2,2,4,90,1,1,90,1,48000,1,277.296300000671,0.00360625078660472,166,-25.7220127109915,2235,-2.82229208946228
3,7,557,340,2.60002083333333,0.6,0.2,2,1,2,90,0,0,NaN,1,48000,1,NaN,NaN,156,-11.0168787576282,0,NaN
3,7,558,380,2.84002083333333,0.8,0.2,0.2,2,3,90,1,0,-90,1,48000,1,208.044166665786,0.00480667166028479,162,-5.54960602783979,2243,NaN
3,7,559,380,2.6426875,0.6,2,2,2,4,-90,0,0,NaN,1,48000,1,NaN,NaN,163,-25.3286182757883,0,NaN
3,7,560,480,2.84002083333333,0.8,2,2,2,4,90,1,1,90,1,48000,1,204.875166664351,0.0048810210445774,166,-25.7423636170512,2253,-0.172998026013374
3,8,561,410,2.60002083333333,0.6,0.2,2,1,2,-90,0,0,NaN,1,48000,1,NaN,NaN,155,-10.6076009317786,0,NaN
3,8,562,590,2.60002083333333,0.6,0.2,2,1,2,90,1,0,-90,1,48000,1,243.371966664199,0.00410893667708157,158,-12.3925720486227,2261,3.25650334358215
3,8,563,340,2.58935416666667,0.6,2,0.2,1,1,-90,0,0,NaN,1,48000,1,NaN,NaN,151,-6.89414834525881,0,NaN
3,8,564,590,2.6426875,0.6,0.2,0.2,2,3,-90,0,0,NaN,1,48000,1,NaN,NaN,159,-7.02588747325671,0,NaN
3,8,565,450,2.60002083333333,0.6,2,0.2,1,1,-90,1,0,90,1,48000,1,194.081266665307,0.00515248079931639,153,-6.23302428540172,2273,-6.92838716506958
3,8,566,340,2.79735416666667,0.8,0.2,2,1,2,90,0,0,NaN,1,48000,1,NaN,NaN,156,-11.009413316307,0,NaN
3,8,567,410,2.65335416666667,0.6,0.2,0.2,2,3,90,1,1,90,1,48000,1,206.804133333208,0.00483549329446321,162,-5.44295515047226,2281,-5.07849454879761
3,8,568,340,2.73602083333333,0.7,0.2,0.2,2,3,90,0,0,NaN,1,48000,1,NaN,NaN,160,-5.37258801478728,0,NaN
3,8,569,450,2.86135416666667,0.8,2,2,2,4,90,1,1,90,1,48000,1,172.271733332309,0.00580478283149923,166,-25.6622922054217,2289,-4.80604791641235
3,8,570,550,2.75735416666667,0.7,2,2,2,4,90,0,0,NaN,1,48000,1,NaN,NaN,164,-25.1766916298358,0,NaN
3,8,571,620,2.86135416666667,0.8,0.2,0.2,2,3,-90,1,1,-90,1,48000,1,177.17043333505,0.00564428263325904,161,-9.58489447310127,2298,-3.56581878662109
3,8,572,480,2.60002083333333,0.6,2,0.2,1,1,-90,1,1,-90,1,48000,1,188.404366666873,0.00530773260562558,153,-7.23359475987478,2301,NaN
3,8,573,380,2.6426875,0.6,2,0.2,1,1,90,0,0,NaN,1,48000,1,NaN,NaN,152,-6.04502155629276,0,NaN
3,8,574,590,2.8506875,0.8,2,2,2,4,90,0,0,NaN,1,48000,1,NaN,NaN,164,-27.1805662280262,0,NaN
3,8,575,310,2.66402083333333,0.6,0.2,0.2,2,3,-90,0,0,NaN,1,48000,1,NaN,NaN,159,-5.4433411120907,0,NaN
3,8,576,450,2.75735416666667,0.7,2,2,2,4,-90,1,0,90,1,48000,1,659.986533331903,0.00151518243099834,165,-25.6314097253419,2318,NaN
3,8,577,520,2.66402083333333,0.6,0.2,0.2,2,3,-90,1,0,90,1,48000,1,276.224966666632,0.00362023756240279,161,-6.06548662597362,2321,-6.28781414031982
3,8,578,310,2.79735416666667,0.8,2,0.2,1,1,-90,0,0,NaN,1,48000,1,NaN,NaN,151,-7.06516927872283,0,NaN
3,8,579,480,2.7146875,0.7,2,0.2,1,1,-90,1,1,-90,1,48000,1,194.293099999413,0.00514686316705544,153,-6.98360848809355,2329,-1.71603190898895
3,8,580,620,2.6426875,0.6,2,2,2,4,90,0,0,NaN,1,48000,1,NaN,NaN,164,-31.5508377630638,0,NaN
3,8,581,550,2.84002083333333,0.8,2,2,2,4,-90,0,0,NaN,1,48000,1,NaN,NaN,163,-25.1642718510119,0,NaN
3,8,582,620,2.73602083333333,0.7,2,2,2,4,90,1,0,-90,1,48000,1,219.943766665892,0.00454661668825132,166,-31.5725657918571,2342,-6.2911958694458
3,8,583,310,2.80802083333333,0.8,0.2,2,1,2,-90,1,1,-90,1,48000,1,234.157766668432,0.00427062494756368,157,-10.25832275853,2345,1.14023804664612
3,8,584,310,2.76002083333333,0.6,0.2,2,1,2,-90,0,0,NaN,1,48000,1,NaN,NaN,155,-10.2725693694007,0,NaN
3,8,585,620,2.58935416666667,0.6,0.2,2,1,2,-90,1,1,-90,1,48000,1,201.81163333109,0.00495511573586747,157,-13.712054987057,2354,3.96055173873901
3,8,586,450,2.75735416666667,0.7,2,2,2,4,-90,1,0,90,1,48000,1,403.571333332366,0.00247787669095029,165,-25.653218705692,2358,-1.71307003498077
3,8,587,550,2.7466875,0.7,0.2,0.2,2,3,90,1,1,90,1,48000,1,297.468500000832,0.0033617004825627,162,-5.9398573992865,2362,-4.829514503479
3,8,588,550,2.7866875,0.8,2,0.2,1,1,90,1,0,-90,1,48000,1,243.984400000045,0.00409862269882753,154,-7.75672551776749,2366,-0.6120325922966
3,8,589,590,2.77602083333333,0.8,2,0.2,1,1,90,1,0,-90,1,48000,1,212.667666664856,0.00470217224687899,154,-8.74394504570599,2370,NaN
3,8,590,380,2.84002083333333,0.8,0.2,0.2,2,3,-90,1,0,90,1,48000,1,248.035966666066,0.00403167336350987,161,-5.57543993906074,2373,-5.61122226715088
3,8,591,450,2.79735416666667,0.8,2,0.2,1,1,90,0,0,NaN,1,48000,1,NaN,NaN,152,-6.8655015588954,0,NaN
3,8,592,590,2.6426875,0.6,0.2,0.2,2,3,90,0,0,NaN,1,48000,1,NaN,NaN,160,-7.02588747325671,0,NaN
3,8,593,520,2.58935416666667,0.6,0.2,2,1,2,90,0,0,NaN,1,48000,1,NaN,NaN,156,-11.479125381462,0,NaN
3,8,594,550,2.7866875,0.8,2,0.2,1,1,-90,1,0,90,1,48000,1,203.476099999534,0.00491458210572293,153,-7.75672551776749,2389,4.06022882461548
3,8,595,380,2.6426875,0.6,0.2,0.2,2,3,-90,0,0,NaN,1,48000,1,NaN,NaN,159,-5.62343871438515,0,NaN
3,8,596,520,2.60002083333333,0.6,0.2,2,1,2,-90,0,0,NaN,1,48000,1,NaN,NaN,155,-11.4825548672349,0,NaN
3,8,597,520,2.67202083333333,0.7,0.2,2,1,2,90,1,1,90,1,48000,1,177.269666668508,0.00564112303471517,158,-11.4835928916309,2402,0.297910124063492
3,8,598,550,2.58935416666667,0.6,0.2,2,1,2,-90,1,1,-90,1,48000,1,354.038533332641,0.00282455130120098,157,-11.5120500470833,2405,4.82150554656982
3,8,599,410,2.65335416666667,0.6,0.2,0.2,2,3,90,0,0,NaN,1,48000,1,NaN,NaN,160,-5.51165736149549,0,NaN
3,8,600,550,2.6426875,0.6,2,2,2,4,-90,1,0,90,1,48000,1,254.635100000087,0.00392718835698479,165,-25.2155678960655,2414,NaN
3,8,601,340,2.6426875,0.6,2,2,2,4,-90,1,0,90,1,48000,1,274.345299998458,0.00364504148606016,165,-24.7764334217339,2417,-0.709763050079346
3,8,602,590,2.6426875,0.6,2,2,2,4,-90,0,0,NaN,1,48000,1,NaN,NaN,163,-27.1527298891359,0,NaN
3,8,603,380,2.69335416666667,0.7,0.2,2,1,2,90,1,0,-90,1,48000,1,249.533166668698,0.00400748330712962,158,-10.4955196197628,2426,0.144097432494164
3,8,604,310,2.70402083333333,0.7,0.2,2,1,2,90,1,1,90,1,48000,1,579.237866666517,0.00172640646882247,158,-10.256221462447,2430,-0.170321404933929
3,8,605,520,2.58935416666667,0.6,2,0.2,1,1,90,1,0,-90,1,48000,1,195.673049998732,0.00511056581377191,154,-7.48403396473445,2433,-5.87008380889893
3,8,606,480,2.8506875,0.8,2,2,2,4,90,0,0,NaN,1,48000,1,NaN,NaN,164,-25.775899820566,0,NaN
3,8,607,550,2.84002083333333,0.8,2,2,2,4,90,0,0,NaN,1,48000,1,NaN,NaN,164,-25.1642718510119,0,NaN
3,8,608,450,2.75735416666667,0.7,2,2,2,4,90,1,0,-90,1,48000,1,198.095233334243,0.00504807704440175,166,-25.6314097253419,2446,-4.92647552490234
3,8,609,480,2.65335416666667,0.6,2,2,2,4,90,1,0,-90,1,48000,1,165.227533332654,0.00605226005514886,166,-25.7280572642869,2449,-2.63007259368896
3,8,610,310,2.79735416666667,0.8,2,0.2,1,1,90,0,0,NaN,1,48000,1,NaN,NaN,152,-7.06516927872283,0,NaN
3,8,611,480,2.60002083333333,0.6,2,0.2,1,1,90,0,0,NaN,1,48000,1,NaN,NaN,152,-7.46197289486077,0,NaN
3,8,612,450,2.8506875,0.8,0.2,0.2,2,3,-90,1,1,-90,1,48000,1,181.662900000447,0.0055047012901233,161,-5.76249331861431,2462,2.28421521186829
3,8,613,620,2.69335416666667,0.7,0.2,2,1,2,-90,1,0,90,1,48000,1,216.624733333447,0.00461627804273262,157,-13.7059704669345,2466,-3.00365281105042
3,8,614,450,2.7466875,0.7,0.2,0.2,2,3,-90,1,1,-90,1,48000,1,258.675299999595,0.00386585035371203,161,-5.81335530388733,2470,7.34458303451538
3,8,615,340,2.79735416666667,0.8,2,0.2,1,1,-90,1,1,-90,1,48000,1,221.137233334957,0.00452207882371982,153,-6.70089702513732,2473,-6.78483438491821
3,8,616,590,2.67202083333333,0.7,0.2,2,1,2,90,0,0,NaN,1,48000,1,NaN,NaN,156,-12.3847766733572,0,NaN
3,8,617,520,2.5786875,0.6,2,0.2,1,1,90,1,1,90,1,48000,1,170.902999998361,0.00585127235923061,154,-7.40714012065932,2482,-2.681312084198
3,8,618,310,2.70402083333333,0.7,0.2,2,1,2,90,1,1,90,1,48000,1,241.189766666139,0.00414611288788312,158,-10.256221462447,2485,-2.55764007568359
3,8,619,310,2.60002083333333,0.6,2,0.2,1,1,90,0,0,NaN,1,48000,1,NaN,NaN,152,-7.10892649311531,0,NaN
3,8,620,550,2.7466875,0.7,2,2,2,4,-90,0,0,NaN,1,48000,1,NaN,NaN,163,-25.2055695332962,0,NaN
3,8,621,550,2.75735416666667,0.7,2,2,2,4,-90,0,0,NaN,1,48000,1,NaN,NaN,163,-25.1766916298358,0,NaN
3,8,622,410,2.84002083333333,0.8,0.2,0.2,2,3,90,0,0,NaN,1,48000,1,NaN,NaN,160,-5.50549653722435,0,NaN
3,8,623,520,2.65335416666667,0.6,0.2,0.2,2,3,90,1,1,90,1,48000,1,203.197833330705,0.00492131231720614,162,-6.06661575857216,2505,NaN
3,8,624,550,2.8506875,0.8,0.2,0.2,2,3,-90,0,0,NaN,1,48000,1,NaN,NaN,159,-5.97266983994011,0,NaN
3,8,625,340,2.7866875,0.8,0.2,2,1,2,90,0,0,NaN,1,48000,1,NaN,NaN,156,-11.0076522909639,0,NaN
3,8,626,450,2.86135416666667,0.8,2,2,2,4,-90,1,1,-90,1,48000,1,199.542633332385,0.00501146037465721,165,-25.6622922054217,2518,0.704161465167999
3,8,627,590,2.79735416666667,0.8,0.2,2,1,2,-90,1,1,-90,1,48000,1,181.483733334971,0.0055101357109194,157,-12.3931640748448,2522,-3.94366931915283
3,8,628,310,2.82402083333333,0.6,2,2,2,4,90,1,1,90,1,48000,1,201.907966667932,0.00495275157539797,166,-24.237299476544,2525,-2.35367512702942
3,8,629,340,2.73602083333333,0.7,0.2,0.2,2,3,-90,0,0,NaN,1,48000,1,NaN,NaN,159,-5.37258801478728,0,NaN
3,8,630,380,2.60002083333333,0.6,0.2,2,1,2,-90,0,0,NaN,1,48000,1,NaN,NaN,155,-10.4912613090591,0,NaN
3,8,631,550,2.75735416666667,0.7,2,2,2,4,-90,0,0,NaN,1,48000,1,NaN,NaN,163,-25.1766916298358,0,NaN
3,8,632,380,2.79735416666667,0.8,2,0.2,1,1,-90,0,0,NaN,1,48000,1,NaN,NaN,151,-6.91615214113558,0,NaN
3,8,633,620,2.86135416666667,0.8,0.2,0.2,2,3,90,1,1,90,1,48000,1,188.363633333211,0.00530888039429047,162,-9.58489447310127,2545,NaN
3,8,634,620,2.70402083333333,0.7,2,0.2,1,1,-90,0,0,NaN,1,48000,1,NaN,NaN,151,-9.80895335063745,0,NaN
3,8,635,380,2.6426875,0.6,0.2,0.2,2,3,90,0,0,NaN,1,48000,1,NaN,NaN,160,-5.60805022224769,0,NaN
3,8,636,410,2.70402083333333,0.7,2,0.2,1,1,-90,0,0,NaN,1,48000,1,NaN,NaN,151,-7.36507481541321,0,NaN
3,8,637,520,2.60002083333333,0.6,0.2,2,1,2,-90,0,0,NaN,1,48000,1,NaN,NaN,155,-11.4825548672349,0,NaN
3,8,638,310,3.04802083333333,0.6,0.2,0.2,2,3,90,1,1,90,1,48000,1,206.136766666532,0.00485114817783915,162,-4.98560800028756,2566,-11.1324872970581
3,8,639,620,2.80802083333333,0.8,2,0.2,1,1,90,1,0,-90,1,48000,1,227.570633334835,0.00439424008865262,154,-9.73765429739032,2571,2.19919633865356
3,8,640,450,2.60002083333333,0.6,0.2,2,1,2,90,0,0,NaN,1,48000,1,NaN,NaN,156,-9.66516460757569,0,NaN
3,9,641,590,2.7466875,0.7,2,2,2,4,-90,0,0,NaN,1,48000,1,NaN,NaN,163,-27.1685461467001,0,NaN
3,9,642,310,2.69335416666667,0.7,0.2,2,1,2,90,1,0,-90,1,48000,1,183.635233332097,0.00544557807265416,158,-10.2556668274754,2584,0.554110050201416
3,9,643,340,2.7466875,0.7,2,2,2,4,90,1,1,90,1,48000,1,212.148700000398,0.00471367488934942,166,-24.7752655522815,2588,-0.321970343589783
3,9,644,480,2.69335416666667,0.7,0.2,2,1,2,90,1,1,90,1,48000,1,307.832333333863,0.00324852165193264,158,-10.3356881309753,2592,1.88927555084229
3,9,645,620,2.65335416666667,0.6,0.2,0.2,2,3,-90,1,1,-90,1,48000,1,157.337233331418,0.00635577465566323,161,-9.55410559156286,2595,-6.21800756454468
3,9,646,590,2.67202083333333,0.7,0.2,2,1,2,-90,0,0,NaN,1,48000,1,NaN,NaN,155,-12.3847766733572,0,NaN
3,9,647,450,2.8506875,0.8,0.2,0.2,2,3,90,1,1,90,1,48000,1,186.284499999601,0.00536813315118617,162,-5.76249331861431,2604,-6.20724058151245
3,9,648,480,2.79735416666667,0.8,2,0.2,1,1,90,1,1,90,1,48000,1,210.796533332541,0.00474391103207781,154,-7.33763548018218,2607,3.99243903160095
3,9,649,380,2.7866875,0.8,2,0.2,1,1,90,0,0,NaN,1,48000,1,NaN,NaN,152,-6.68549885469536,0,NaN
3,9,650,550,2.69335416666667,0.7,2,0.2,1,1,90,1,1,90,1,48000,1,170.66953333233,0.00585927658249811,154,-8.19440237303365,2616,-4.18817520141602
3,9,651,480,2.79735416666667,0.8,0.2,2,1,2,90,1,0,-90,1,48000,1,211.626733334924,0.00472530093075426,158,-10.3356673615812,2619,-3.61981010437012
3,9,652,450,2.70402083333333,0.7,0.2,2,1,2,-90,0,0,NaN,1,48000,1,NaN,NaN,155,-9.66521811041558,0,NaN
3,9,653,480,2.7466875,0.7,0.2,0.2,2,3,90,0,0,NaN,1,48000,1,NaN,NaN,160,-5.737289599966,0,NaN
3,9,654,340,2.8506875,0.8,2,2,2,4,90,0,0,NaN,1,48000,1,NaN,NaN,164,-24.7848900561069,0,NaN
3,9,655,340,2.75735416666667,0.7,0.2,0.2,2,3,90,0,0,NaN,1,48000,1,NaN,NaN,160,-5.3407444839552,0,NaN
3,9,656,620,2.63202083333333,0.6,2,2,2,4,-90,1,0,90,1,48000,1,216.742266664369,0.00461377476294703,165,-31.5792774264613,2640,-4.82136583328247
3,9,657,310,2.80802083333333,0.8,0.2,2,1,2,90,1,1,90,1,48000,1,177.527466667016,0.00563293116707218,158,-10.25832275853,2643,-0.0135495476424694
3,9,658,520,2.65335416666667,0.6,2,2,2,4,-90,0,0,NaN,1,48000,1,NaN,NaN,163,-26.1629696085968,0,NaN
3,9,659,340,2.7466875,0.7,2,2,2,4,90,0,0,NaN,1,48000,1,NaN,NaN,164,-24.7739332459954,0,NaN
3,9,660,590,2.60002083333333,0.6,2,0.2,1,1,-90,0,0,NaN,1,48000,1,NaN,NaN,151,-9.02741727859558,0,NaN
3,9,661,590,2.87202083333333,0.8,0.2,0.2,2,3,90,1,0,-90,1,48000,1,346.332066665127,0.00288740228310107,162,-6.9583842904131,2659,0.246444344520569
3,9,662,340,2.65335416666667,0.6,0.2,0.2,2,3,-90,0,0,NaN,1,48000,1,NaN,NaN,159,-5.35194440163923,0,NaN
3,9,663,480,2.60002083333333,0.6,2,0.2,1,1,-90,0,0,NaN,1,48000,1,NaN,NaN,151,-7.46197289486077,0,NaN
3,9,664,520,2.58935416666667,0.6,2,0.2,1,1,-90,1,0,90,1,48000,1,168.572533333645,0.0059321645123572,153,-7.48403396473445,2672,-2.46262693405151
3,9,665,620,2.7466875,0.7,2,2,2,4,-90,1,0,90,1,48000,1,207.1605000001,0.00482717506474216,165,-31.5610864035812,2675,-0.00391864124685526
3,9,666,590,2.60002083333333,0.6,2,0.2,1,1,-90,0,0,NaN,1,48000,1,NaN,NaN,151,-9.05123994633743,0,NaN
3,9,667,310,2.6426875,0.6,2,2,2,4,90,1,1,90,1,48000,1,300.756999999066,0.00332494339284906,166,-24.4980094463332,2683,-3.08594560623169
3,9,668,310,2.60002083333333,0.6,2,0.2,1,1,-90,0,0,NaN,1,48000,1,NaN,NaN,151,-7.10892649311531,0,NaN
3,9,669,450,2.65335416666667,0.6,2,2,2,4,-90,0,0,NaN,1,48000,1,NaN,NaN,163,-25.7132824814953,0,NaN
3,9,670,590,2.79735416666667,0.8,0.2,2,1,2,-90,1,1,-90,1,48000,1,178.589583334542,0.00559943072450511,157,-12.3931640748448,2695,5.24050712585449
3,9,671,340,2.60002083333333,0.6,0.2,2,1,2,90,0,0,NaN,1,48000,1,NaN,NaN,156,-11.0168787576282,0,NaN
3,9,672,620,2.70402083333333,0.7,2,0.2,1,1,-90,0,0,NaN,1,48000,1,NaN,NaN,151,-9.80895335063745,0,NaN
3,9,673,550,2.84002083333333,0.8,2,2,2,4,90,0,0,NaN,1,48000,1,NaN,NaN,164,-25.1642718510119,0,NaN
3,9,674,480,2.66402083333333,0.6,0.2,0.2,2,3,-90,0,0,NaN,1,48000,1,NaN,NaN,159,-5.68580903256607,0,NaN
3,9,675,450,2.65335416666667,0.6,2,2,2,4,90,0,0,NaN,1,48000,1,NaN,NaN,164,-25.7132824814953,0,NaN
3,9,676,450,2.80802083333333,0.8,0.2,2,1,2,90,0,0,NaN,1,48000,1,NaN,NaN,156,-9.6659107293185,0,NaN
3,9,677,380,2.79735416666667,0.8,0.2,2,1,2,-90,1,0,90,1,48000,1,243.116733334318,0.00411325039739188,157,-10.497271998455,2724,-3.55194926261902
3,9,678,590,2.56802083333333,0.6,0.2,2,1,2,-90,1,0,90,1,48000,1,227.688466666223,0.00439196598159686,157,-12.3905686107578,2728,2.18787956237793
3,9,679,590,2.6826875,0.7,2,0.2,1,1,-90,1,0,90,1,48000,1,196.092899999712,0.00509962369877475,153,-8.53025017373564,2731,-6.55859518051147
3,9,680,520,2.65335416666667,0.6,2,2,2,4,-90,0,0,NaN,1,48000,1,NaN,NaN,163,-26.1629696085968,0,NaN
3,9,681,480,2.84002083333333,0.8,2,2,2,4,90,1,1,90,1,48000,1,152.678366666805,0.00654971638635833,166,-25.7423636170512,2739,0.792905151844025
3,9,682,310,2.7466875,0.7,2,2,2,4,90,0,0,NaN,1,48000,1,NaN,NaN,164,-24.5314979319913,0,NaN
3,9,683,550,2.8506875,0.8,0.2,0.2,2,3,-90,0,0,NaN,1,48000,1,NaN,NaN,159,-5.97266983994011,0,NaN
3,9,684,590,2.80802083333333,0.8,0.2,2,1,2,90,0,0,NaN,1,48000,1,NaN,NaN,156,-12.3889628794834,0,NaN
3,9,685,310,2.70402083333333,0.7,0.2,2,1,2,-90,1,1,-90,1,48000,1,176.812466666888,0.00565570979722818,157,-10.256221462447,2756,2.010746717453
3,9,686,340,2.7466875,0.7,2,2,2,4,90,1,1,90,1,48000,1,279.37380000003,0.00357943371926749,166,-24.7752655522815,2759,-1.59325420856476
3,9,687,310,2.58935416666667,0.6,0.2,2,1,2,90,0,0,NaN,1,48000,1,NaN,NaN,156,-10.250558742699,0,NaN
3,9,688,340,2.8506875,0.8,0.2,0.2,2,3,-90,1,0,90,1,48000,1,175.904400000945,0.00568490611942979,161,-5.2996497630897,2768,NaN
3,9,689,550,2.7466875,0.7,0.2,0.2,2,3,-90,1,1,-90,1,48000,1,173.87029999918,0.00575141355369327,161,-5.9398573992865,2771,0.32253086566925
3,9,690,380,2.60002083333333,0.6,0.2,2,1,2,90,0,0,NaN,1,48000,1,NaN,NaN,156,-10.4912613090591,0,NaN
3,9,691,550,2.8506875,0.8,0.2,0.2,2,3,90,0,0,NaN,1,48000,1,NaN,NaN,160,-5.97266983994011,0,NaN
3,9,692,450,2.7466875,0.7,0.2,0.2,2,3,90,0,0,NaN,1,48000,1,NaN,NaN,160,-5.84222960390993,0,NaN
3,9,693,310,2.70402083333333,0.7,2,0.2,1,1,90,1,0,-90,1,48000,1,355.266166667207,0.00281479097596351,154,-6.68039625454571,2788,-2.20110869407654
3,9,694,520,2.6426875,0.6,2,2,2,4,90,1,1,90,1,48000,1,561.740199998894,0.00178018236900611,166,-26.1598362808608,2791,-2.24200320243835
3,9,695,340,2.75735416666667,0.7,0.2,0.2,2,3,-90,0,0,NaN,1,48000,1,NaN,NaN,159,-5.3407444839552,0,NaN
3,9,696,550,2.8506875,0.8,2,2,2,4,-90,1,1,-90,1,48000,1,185.506800002258,0.00539063797115699,165,-25.2711276773582,2800,2.1159975528717
3,9,697,620,2.73602083333333,0.7,2,2,2,4,-90,1,0,90,1,48000,1,232.711966667921,0.00429715761642372,165,-31.5725657918571,2803,5.64613580703735
3,9,698,310,2.73602083333333,0.7,0.2,0.2,2,3,-90,0,0,NaN,1,48000,1,NaN,NaN,159,-5.5374644289149,0,NaN
3,9,699,410,2.70402083333333,0.7,0.2,2,1,2,-90,0,0,NaN,1,48000,1,NaN,NaN,155,-10.6098343590682,0,NaN
3,9,700,310,2.70402083333333,0.7,2,0.2,1,1,-90,1,0,90,1,48000,1,173.869066666157,0.00575145435110711,153,-6.65743372949228,2816,-5.10567760467529
3,9,701,620,2.6106875,0.6,2,0.2,1,1,-90,1,1,-90,1,48000,1,218.767899999875,0.00457105452856918,153,-9.73208827376332,2819,4.20114421844482
3,9,702,380,2.6426875,0.6,2,0.2,1,1,90,0,0,NaN,1,48000,1,NaN,NaN,152,-6.04502155629276,0,NaN
3,9,703,480,2.79735416666667,0.8,0.2,2,1,2,-90,1,1,-90,1,48000,1,212.603633333856,0.00470358847738824,157,-10.335784807453,2827,3.11117124557495
3,9,704,410,2.70402083333333,0.7,0.2,2,1,2,-90,0,0,NaN,1,48000,1,NaN,NaN,155,-10.6098343590682,0,NaN
3,9,705,620,2.69335416666667,0.7,2,0.2,1,1,90,1,0,-90,1,48000,1,167.615033331458,0.00596605197114094,154,-9.42579219095296,2836,6.07214260101318
3,9,706,450,2.7466875,0.7,0.2,0.2,2,3,90,1,1,90,1,48000,1,192.221499999505,0.00520233168507464,162,-5.81335530388733,2840,-5.57300472259521
3,9,707,620,2.65335416666667,0.6,0.2,0.2,2,3,-90,1,1,-90,1,48000,1,180.698833330098,0.00553407004113422,161,-9.55410559156286,2843,2.1700644493103
3,9,708,480,2.7866875,0.8,2,0.2,1,1,90,0,0,NaN,1,48000,1,NaN,NaN,152,-7.35805696593057,0,NaN
3,9,709,380,2.58935416666667,0.6,2,0.2,1,1,90,1,1,90,1,48000,1,177.569933332052,0.00563158402571466,154,-6.807908230844,2851,2.74433970451355
3,9,710,410,2.73602083333333,0.7,2,2,2,4,-90,0,0,NaN,1,48000,1,NaN,NaN,163,-25.8672355155751,0,NaN
3,9,711,450,2.79735416666667,0.8,2,0.2,1,1,90,0,0,NaN,1,48000,1,NaN,NaN,152,-6.8655015588954,0,NaN
3,9,712,410,2.76802083333333,0.7,2,0.2,1,1,90,0,0,NaN,1,48000,1,NaN,NaN,152,-6.14332774675402,0,NaN
3,9,713,590,2.77602083333333,0.8,2,0.2,1,1,-90,1,0,90,1,48000,1,204.639766665423,0.00488663575166676,153,-8.74394504570599,2868,-4.7091498374939
3,9,714,310,2.73602083333333,0.7,0.2,0.2,2,3,-90,1,0,90,1,48000,1,208.495266666432,0.00479627195374119,161,-5.458008290575,2872,2.04360628128052
3,9,715,410,2.75735416666667,0.7,0.2,0.2,2,3,90,1,1,90,1,48000,1,219.733533333056,0.00455096673152875,162,-5.48379399090838,2875,1.34327232837677
3,9,716,480,2.8506875,0.8,0.2,0.2,2,3,90,0,0,NaN,1,48000,1,NaN,NaN,160,-5.69079160745487,0,NaN
3,9,717,550,2.58935416666667,0.6,0.2,2,1,2,90,1,1,90,1,48000,1,208.474033332095,0.00479676045988432,158,-11.5120500470833,2884,0.356176495552063
3,9,718,550,2.6426875,0.6,2,2,2,4,-90,1,0,90,1,48000,1,164.277800000491,0.00608724976836195,165,-25.2155678960655,2888,-6.14675855636597
3,9,719,520,2.8506875,0.8,0.2,0.2,2,3,90,1,0,-90,1,48000,1,185.467999999673,0.00539176569543944,162,-6.04250084549217,2893,-2.24198722839355
3,9,720,620,2.80802083333333,0.8,0.2,2,1,2,-90,0,0,NaN,1,48000,1,NaN,NaN,155,-13.6944493472279,0,NaN
3,10,721,380,2.75735416666667,0.7,2,2,2,4,90,1,0,-90,1,48000,1,264.223333331756,0.00378467710398767,166,-25.3488581986925,2902,2.64687943458557
3,10,722,410,2.65335416666667,0.6,0.2,0.2,2,3,-90,1,1,-90,1,48000,1,255.312033332302,0.00391677582504874,161,-5.44295515047226,2905,-11.1997394561768
3,10,723,550,2.8506875,0.8,0.2,0.2,2,3,-90,0,0,NaN,1,48000,1,NaN,NaN,159,-5.97723640005229,0,NaN
3,10,724,410,2.6826875,0.7,0.2,2,1,2,-90,1,0,90,1,48000,1,207.68020000105,0.00481509551702542,157,-10.6119666240238,2913,-9.72323513031006
3,10,725,480,2.65335416666667,0.6,2,2,2,4,90,0,0,NaN,1,48000,1,NaN,NaN,164,-25.7957641066376,0,NaN
3,10,726,380,2.69335416666667,0.7,0.2,2,1,2,90,1,0,-90,1,48000,1,153.271033332203,0.00652439001851432,158,-10.4955196197628,2922,-1.52826750278473
3,10,727,480,2.7146875,0.7,2,0.2,1,1,-90,1,1,-90,1,48000,1,189.737799999421,0.00527043108965664,153,-6.98360848809355,2925,NaN
3,10,728,380,2.6426875,0.6,0.2,0.2,2,3,-90,0,0,NaN,1,48000,1,NaN,NaN,159,-5.62343871438515,0,NaN
3,10,729,450,2.80802083333333,0.8,0.2,2,1,2,-90,0,0,NaN,1,48000,1,NaN,NaN,155,-9.6659107293185,0,NaN
3,10,730,520,2.60002083333333,0.6,0.2,2,1,2,90,0,0,NaN,1,48000,1,NaN,NaN,156,-11.4825548672349,0,NaN
3,10,731,590,2.56802083333333,0.6,0.2,2,1,2,90,1,0,-90,1,48000,1,188.320600002044,0.00531009353192985,158,-12.3905686107578,2942,NaN
3,10,732,520,2.6426875,0.6,2,2,2,4,-90,1,1,-90,1,48000,1,243.753200000356,0.00410251024396209,165,-26.1598362808608,2945,-2.21334648132324
3,10,733,450,2.69335416666667,0.7,0.2,2,1,2,90,0,0,NaN,1,48000,1,NaN,NaN,156,-9.66349835409994,0,NaN
3,10,734,340,2.60002083333333,0.6,0.2,2,1,2,-90,0,0,NaN,1,48000,1,NaN,NaN,155,-11.0168787576282,0,NaN
3,10,735,520,2.65335416666667,0.6,2,2,2,4,90,0,0,NaN,1,48000,1,NaN,NaN,164,-26.1629696085968,0,NaN
3,10,736,380,2.6426875,0.6,0.2,0.2,2,3,90,0,0,NaN,1,48000,1,NaN,NaN,160,-5.62343871438515,0,NaN
3,10,737,380,2.75735416666667,0.7,0.2,0.2,2,3,-90,1,1,-90,1,48000,1,175.760433332471,0.00568956266800041,161,-5.547059873967,2965,0.15781581401825
3,10,738,450,2.70402083333333,0.7,2,0.2,1,1,90,0,0,NaN,1,48000,1,NaN,NaN,152,-6.82413174904796,0,NaN
3,10,739,550,2.7866875,0.8,0.2,2,1,2,-90,0,0,NaN,1,48000,1,NaN,NaN,155,-11.517324900925,0,NaN
3,10,740,380,2.75735416666667,0.7,2,2,2,4,-90,1,0,90,1,48000,1,178.761533332363,0.00559404465467829,165,-25.3488581986925,2978,1.5818874835968
3,10,741,550,2.6426875,0.6,2,2,2,4,90,1,0,-90,1,48000,1,350.594499999715,0.00285229802521378,166,-25.2155678960655,2981,0.20348134636879
3,10,742,450,2.70402083333333,0.7,0.2,2,1,2,90,0,0,NaN,1,48000,1,NaN,NaN,156,-9.66521811041558,0,NaN
3,10,743,620,2.58935416666667,0.6,0.2,2,1,2,-90,1,1,-90,1,48000,1,184.100233333083,0.00543182364245432,157,-13.712054987057,2989,4.38414239883423
3,10,744,340,2.67202083333333,0.7,2,0.2,1,1,-90,0,0,NaN,1,48000,1,NaN,NaN,151,-7.06392834577456,0,NaN
3,10,745,520,2.73602083333333,0.7,2,2,2,4,-90,0,0,NaN,1,48000,1,NaN,NaN,163,-26.1596382760859,0,NaN
3,10,746,480,2.60002083333333,0.6,2,0.2,1,1,90,1,1,90,1,48000,1,165.924266664661,0.00602684598281841,154,-7.23359475987478,3002,-2.18006634712219
3,10,747,340,2.70402083333333,0.7,2,0.2,1,1,-90,1,0,90,1,48000,1,207.738466664523,0.00481374497490107,153,-7.0145526152145,3006,-2.83826947212219
3,10,748,550,2.7866875,0.8,2,0.2,1,1,90,1,0,-90,1,48000,1,164.770699999281,0.00606904018738991,154,-7.75672551776749,3009,2.19279217720032
3,10,749,520,2.58935416666667,0.6,0.2,2,1,2,90,0,0,NaN,1,48000,1,NaN,NaN,156,-11.479125381462,0,NaN
3,10,750,480,2.60002083333333,0.6,2,0.2,1,1,-90,0,0,NaN,1,48000,1,NaN,NaN,151,-7.46197289486077,0,NaN
3,10,751,340,2.73602083333333,0.7,0.2,0.2,2,3,90,0,0,NaN,1,48000,1,NaN,NaN,160,-5.37258801478728,0,NaN
3,10,752,450,2.75735416666667,0.7,2,2,2,4,-90,1,0,90,1,48000,1,176.44563333306,0.00566746810963802,165,-25.653218705692,3026,-3.03955411911011
3,10,753,340,2.8506875,0.8,0.2,0.2,2,3,90,1,0,-90,1,48000,1,228.061000001617,0.00438479178813085,162,-5.2996497630897,3029,-1.81715714931488
3,10,754,310,2.84002083333333,0.8,2,2,2,4,-90,0,0,NaN,1,48000,1,NaN,NaN,163,-24.5309137834883,0,NaN
3,10,755,620,2.60002083333333,0.6,2,0.2,1,1,90,0,0,NaN,1,48000,1,NaN,NaN,152,-9.83527719809979,0,NaN
3,10,756,310,3.04802083333333,0.6,0.2,0.2,2,3,-90,1,1,-90,1,48000,1,224.287666665987,0.00445855991488475,161,-4.98560800028756,3041,6.62325477600098
3,10,757,380,2.6426875,0.6,2,2,2,4,90,0,0,NaN,1,48000,1,NaN,NaN,164,-25.3236453849584,0,NaN
3,10,758,480,2.8506875,0.8,0.2,0.2,2,3,-90,0,0,NaN,1,48000,1,NaN,NaN,159,-5.69079160745487,0,NaN
3,10,759,450,2.8506875,0.8,0.2,0.2,2,3,90,1,0,-90,1,48000,1,157.353099999455,0.00635513377241037,162,-5.75090608826877,3054,NaN
3,10,760,590,2.80802083333333,0.8,2,0.2,1,1,90,1,0,-90,1,48000,1,155.858066667861,0.00641609395894173,154,-8.9600281346329,3057,2.59690237045288
3,10,761,550,2.79735416666667,0.8,2,0.2,1,1,-90,0,0,NaN,1,48000,1,NaN,NaN,151,-8.25467320511301,0,NaN
3,10,762,550,2.7466875,0.7,2,2,2,4,-90,0,0,NaN,1,48000,1,NaN,NaN,163,-25.2055695332962,0,NaN
3,10,763,410,2.6426875,0.6,2,2,2,4,90,1,1,90,1,48000,1,221.622299997762,0.00451218131031985,166,-25.8589666178859,3069,2.30959224700928
3,10,764,590,2.7466875,0.7,2,2,2,4,90,0,0,NaN,1,48000,1,NaN,NaN,164,-27.1685461467001,0,NaN
3,10,765,380,2.8506875,0.8,2,2,2,4,-90,1,1,-90,1,48000,1,240.192900000693,0.00416332039788484,165,-25.3312456824629,3077,3.20853734016418
3,10,766,340,2.8506875,0.8,0.2,0.2,2,3,90,0,0,NaN,1,48000,1,NaN,NaN,160,-5.37644993946909,0,NaN
3,10,767,550,2.58935416666667,0.6,0.2,2,1,2,90,1,1,90,1,48000,1,259.930933332726,0.00384717581389186,158,-11.5120500470833,3086,3.54563403129578
3,10,768,620,2.5786875,0.6,0.2,2,1,2,-90,1,1,-90,1,48000,1,191.512683335532,0.00522158628130124,157,-13.7144985512257,3090,-2.75163578987122
3,10,769,590,2.65335416666667,0.6,0.2,0.2,2,3,90,1,1,90,1,48000,1,253.266533331043,0.0039484095543445,162,-6.94163705968263,3093,-1.54838490486145
3,10,770,410,2.65335416666667,0.6,0.2,0.2,2,3,-90,0,0,NaN,1,48000,1,NaN,NaN,159,-5.51165736149549,0,NaN
3,10,771,450,2.70402083333333,0.7,2,0.2,1,1,90,0,0,NaN,1,48000,1,NaN,NaN,152,-6.82413174904796,0,NaN
3,10,772,450,2.8506875,0.8,2,2,2,4,-90,0,0,NaN,1,48000,1,NaN,NaN,163,-25.7937872555901,0,NaN
3,10,773,380,2.6426875,0.6,0.2,0.2,2,3,-90,0,0,NaN,1,48000,1,NaN,NaN,159,-5.60805022224769,0,NaN
3,10,774,450,2.60002083333333,0.6,0.2,2,1,2,-90,0,0,NaN,1,48000,1,NaN,NaN,155,-9.66516460757569,0,NaN
3,10,775,620,2.6106875,0.6,2,0.2,1,1,-90,1,1,-90,1,48000,1,177.880233331962,0.00562176010942031,153,-9.73208827376332,3117,-10.2416048049927
3,10,776,410,2.84002083333333,0.8,0.2,0.2,2,3,90,0,0,NaN,1,48000,1,NaN,NaN,160,-5.50549653722435,0,NaN
3,10,777,410,2.76802083333333,0.7,2,0.2,1,1,-90,0,0,NaN,1,48000,1,NaN,NaN,151,-6.14332774675402,0,NaN
3,10,778,340,2.67202083333333,0.7,2,0.2,1,1,-90,0,0,NaN,1,48000,1,NaN,NaN,151,-7.06392834577456,0,NaN
3,10,779,520,2.70402083333333,0.7,2,0.2,1,1,-90,1,0,90,1,48000,1,192.206466668722,0.00520273858279468,153,-7.93317131466412,3134,-6.65196943283081
3,10,780,620,2.7466875,0.7,0.2,0.2,2,3,90,1,0,-90,1,48000,1,301.496700001735,0.00331678588851634,162,-9.60637461449866,3138,4.0574688911438
3,10,781,410,2.6826875,0.7,0.2,2,1,2,-90,1,0,90,1,48000,1,216.101199999684,0.00462746157819327,157,-10.6119666240238,3142,-3.78997421264648
3,10,782,520,2.7466875,0.7,0.2,0.2,2,3,-90,1,0,90,1,48000,1,173.874300000534,0.00575128124166094,161,-6.09767235364425,3146,-4.18160343170166
3,10,783,620,2.86135416666667,0.8,0.2,0.2,2,3,-90,1,1,-90,1,48000,1,176.120733332937,0.00567792321253632,161,-9.58489447310127,3150,0.758514583110809
3,10,784,620,2.7466875,0.7,2,2,2,4,90,1,0,-90,1,48000,1,187.062500001048,0.00534580688269642,166,-31.5610864035812,3154,-0.391658872365952
3,10,785,410,2.80802083333333,0.8,0.2,2,1,2,90,1,1,90,1,48000,1,157.779466666398,0.00633796032606929,158,-10.6151734169963,3157,4.78875017166138
3,10,786,340,2.8506875,0.8,2,2,2,4,90,0,0,NaN,1,48000,1,NaN,NaN,164,-24.7848900561069,0,NaN
3,10,787,410,2.79735416666667,0.8,2,0.2,1,1,90,0,0,NaN,1,48000,1,NaN,NaN,152,-7.34875373629824,0,NaN
3,10,788,380,2.6426875,0.6,2,2,2,4,-90,0,0,NaN,1,48000,1,NaN,NaN,163,-25.3236453849584,0,NaN
3,10,789,520,2.7466875,0.7,0.2,0.2,2,3,90,1,0,-90,1,48000,1,252.184599999964,0.00396534919261581,162,-6.09767235364425,3174,-2.41976189613342
3,10,790,340,2.6426875,0.6,2,2,2,4,90,1,0,-90,1,48000,1,348.461399998996,0.00286975831470252,166,-24.7764334217339,3177,-0.65015709400177
3,10,791,550,2.7866875,0.8,0.2,2,1,2,90,0,0,NaN,1,48000,1,NaN,NaN,156,-11.517324900925,0,NaN
3,10,792,520,2.67202083333333,0.7,0.2,2,1,2,-90,1,1,-90,1,48000,1,406.070666665983,0.00246262555286359,157,-11.4835928916309,3186,0.25071719288826
3,10,793,310,2.6426875,0.6,2,2,2,4,-90,1,1,-90,1,48000,1,291.149900000164,0.00343465685545294,165,-24.4980094463332,3190,-1.33404147624969
3,10,794,380,2.58935416666667,0.6,2,0.2,1,1,90,1,1,90,1,48000,1,193.861833333358,0.00515831292217502,154,-6.807908230844,3193,-2.00079345703125
3,10,795,340,2.67202083333333,0.7,0.2,2,1,2,-90,0,0,NaN,1,48000,1,NaN,NaN,155,-11.0071832177257,0,NaN
3,10,796,620,2.65335416666667,0.6,0.2,0.2,2,3,90,0,0,NaN,1,48000,1,NaN,NaN,160,-9.59892922763487,0,NaN
3,10,797,310,2.7706875,0.6,2,0.2,1,1,-90,1,1,-90,1,48000,1,263.512100000298,0.00379489215105822,153,-4.92946481251243,3205,-1.98363184928894
3,10,798,620,2.70402083333333,0.7,2,0.2,1,1,90,0,0,NaN,1,48000,1,NaN,NaN,152,-9.80895335063745,0,NaN
3,10,799,520,2.67202083333333,0.7,0.2,2,1,2,90,1,1,90,1,48000,1,231.576966669309,0.0043182187519884,158,-11.4835928916309,0,NaN
3,10,800,340,2.79735416666667,0.8,2,0.2,1,1,90,1,1,90,1,48000,1,432.355533333975,0.00231291130308617,154,-7.18947460959856,0,NaN
4,1,1,620,2.73602083333333,0.7,2,2,2,4,90,1,0,-90,1,48000,1,114.480466665555,0.00873511463681764,166,-31.5725657918571,5,NaN
4,1,2,310,3.04802083333333,0.6,0.2,0.2,2,3,-90,1,1,-90,1,48000,1,175.285066670767,0.00570499255294959,161,-4.98560800028756,9,NaN
4,1,3,590,2.87202083333333,0.8,0.2,0.2,2,3,-90,1,0,90,1,48000,1,502.806366665027,0.00198883718723118,161,-6.9583842904131,13,0.593170821666718
4,1,4,310,2.79735416666667,0.8,2,0.2,1,1,90,0,0,NaN,1,48000,1,NaN,NaN,152,-7.06516927872283,0,NaN
4,1,5,590,2.60002083333333,0.6,2,0.2,1,1,-90,0,0,NaN,1,48000,1,NaN,NaN,151,-9.05123994633743,0,NaN
4,1,6,620,2.73602083333333,0.7,2,2,2,4,-90,1,0,90,1,48000,1,412.815066669282,0.00242239220595388,165,-31.5725657918571,25,4.43370771408081
4,1,7,340,2.79735416666667,0.8,0.2,2,1,2,-90,0,0,NaN,1,48000,1,NaN,NaN,155,-11.009413316307,0,NaN
4,1,8,620,2.58935416666667,0.6,0.2,2,1,2,90,1,1,90,1,48000,1,427.631033333455,0.00233846452210176,158,-13.712054987057,33,-7.64133596420288
4,1,9,520,2.65335416666667,0.6,0.2,0.2,2,3,90,1,1,90,1,48000,1,259.498233332124,0.00385359078233157,162,-6.06661575857216,37,0.948396444320679
4,1,10,310,2.84002083333333,0.8,2,2,2,4,-90,0,0,NaN,1,48000,1,NaN,NaN,163,-24.5309137834883,0,NaN
4,1,11,380,2.7866875,0.8,2,0.2,1,1,90,0,0,NaN,1,48000,1,NaN,NaN,152,-6.68549885469536,0,NaN
4,1,12,480,2.65335416666667,0.6,2,2,2,4,-90,1,0,90,1,48000,1,235.591033335368,0.00424464371942579,165,-25.7280572642869,49,2.28628826141357
4,1,13,340,2.65335416666667,0.6,0.2,0.2,2,3,90,0,0,NaN,1,48000,1,NaN,NaN,160,-5.35194440163923,0,NaN
4,1,14,310,2.73602083333333,0.7,0.2,0.2,2,3,-90,0,0,NaN,1,48000,1,NaN,NaN,159,-5.5374644289149,0,NaN
4,1,15,550,2.8506875,0.8,0.2,0.2,2,3,90,0,0,NaN,1,48000,1,NaN,NaN,160,-5.97266983994011,0,NaN
4,1,16,550,2.7466875,0.7,0.2,0.2,2,3,90,1,1,90,1,48000,1,303.673700000218,0.00329300825194702,162,-5.9398573992865,65,-2.94497108459473
4,1,17,550,2.69335416666667,0.7,2,0.2,1,1,-90,1,1,-90,1,48000,1,397.555133335118,0.00251537438747409,153,-8.19440237303365,69,10.0901145935059
4,1,18,410,2.76802083333333,0.7,2,0.2,1,1,90,0,0,NaN,1,48000,1,NaN,NaN,152,-6.14332774675402,0,NaN
4,1,19,480,2.79735416666667,0.8,2,0.2,1,1,90,1,1,90,1,48000,1,262.199633336422,0.00381388786580385,154,-7.33763548018218,77,NaN
4,1,20,340,2.70402083333333,0.7,0.2,2,1,2,90,1,0,-90,1,48000,1,158.534166668687,0.00630778854182172,158,-11.0108631587499,81,-12.2491607666016
4,1,21,520,2.8506875,0.8,2,2,2,4,-90,0,0,NaN,1,48000,1,NaN,NaN,163,-26.146648364655,0,NaN
4,1,22,410,2.73602083333333,0.7,2,2,2,4,90,0,0,NaN,1,48000,1,NaN,NaN,164,-25.8672355155751,0,NaN
4,1,23,450,2.60002083333333,0.6,2,0.2,1,1,-90,1,0,90,1,48000,1,363.295366671082,0.00275258121005813,153,-6.23302428540172,93,NaN
4,1,24,590,2.65335416666667,0.6,2,2,2,4,-90,1,0,90,1,48000,1,339.680633336684,0.00294394175545717,165,-27.1992881788064,97,NaN
4,1,25,550,2.7866875,0.8,2,0.2,1,1,-90,1,0,90,1,48000,1,186.206700000184,0.00537037603909532,153,-7.75672551776749,101,NaN
4,1,26,590,2.65335416666667,0.6,0.2,0.2,2,3,-90,1,1,-90,1,48000,1,214.06403333458,0.00467149938465847,161,-6.94163705968263,105,6.20062351226807
4,1,27,310,2.58935416666667,0.6,0.2,2,1,2,-90,0,0,NaN,1,48000,1,NaN,NaN,155,-10.250558742699,0,NaN
4,1,28,340,2.67202083333333,0.7,2,0.2,1,1,-90,0,0,NaN,1,48000,1,NaN,NaN,151,-7.06392834577456,0,NaN
4,1,29,310,2.58935416666667,0.6,0.2,2,1,2,90,0,0,NaN,1,48000,1,NaN,NaN,156,-10.250558742699,0,NaN
4,1,30,620,2.58935416666667,0.6,0.2,2,1,2,-90,1,1,-90,1,48000,1,285.910433336539,0.00349759884006373,157,-13.712054987057,121,3.52579474449158
4,1,31,340,2.7866875,0.8,0.2,2,1,2,90,0,0,NaN,1,48000,1,NaN,NaN,156,-11.0076522909639,0,NaN
4,1,32,310,2.84002083333333,0.8,2,2,2,4,90,0,0,NaN,1,48000,1,NaN,NaN,164,-24.5309137834883,0,NaN
4,1,33,620,2.63202083333333,0.6,2,2,2,4,90,1,0,-90,1,48000,1,280.008766669198,0.00357131675516931,166,-31.5792774264613,133,-0.405403405427933
